<?xml version="1.0" encoding="UTF-8"?>
<!--This xml example is for illustrative purposes only and has not been clinically verified-->
<Bundle xmlns="http://hl7.org/fhir">
    <id value="c06e13aa-8c3b-4e67-999b-6e07e399e741"/>
    <meta>
        <profile value="https://fhir.nhs.uk/STU3/StructureDefinition/ITK-Document-Bundle-1"/>
    </meta>
    <identifier>
        <system value="https://tools.ietf.org/html/rfc4122"/>
        <value value="1ff370b6-fc5b-40a1-9721-2a942e301f65"/>
    </identifier>
    <type value="document"/>
    <entry>
        <fullUrl value="urn:uuid:fa2a75a7-4257-422d-92a4-cf537f078e13"/>
        <resource>
            <!--A resource carrying a set of healthcare-related information about the patient-->
            <Composition>
                <id value="fa2a75a7-4257-422d-92a4-cf537f078e13"/>
                <meta>
                    <profile value="https://fhir.nhs.uk/STU3/StructureDefinition/ITK-EDIS-Composition-1"/>
                </meta>
                <!-- Information Recipient 1 - the patient's community nurse -->
                <extension url="https://fhir.nhs.uk/STU3/StructureDefinition/Extension-ITK-InformationRecipient-1">
                    <valueReference>
                        <reference value="urn:uuid:8ece9986-9af0-4882-b0cf-23a96ea7b509"/>
                    </valueReference>
                </extension>
                <!-- Information Recipient 2 - the patient's GP -->
                <extension url="https://fhir.nhs.uk/STU3/StructureDefinition/Extension-ITK-InformationRecipient-1">
                    <valueReference>
                        <reference value="urn:uuid:5e414a77-d394-4248-a631-00e45ddb64a0"/>
                    </valueReference>
                </extension>
                <!-- Extension to carry details of the Correspondence Care Setting Type. -->
                <extension url="https://fhir.nhs.uk/STU3/StructureDefinition/Extension-ITK-CareSettingType-1">
                    <valueCodeableConcept>
                        <coding>
                            <system value="http://snomed.info/sct"/>
                            <code value="893061000000109"/>
                            <display value="Cardiology service"/>
                        </coding>
                    </valueCodeableConcept>
                </extension>
                <identifier>
                    <value value="2b5d459b-df79-4a2b-9b0c-95b2a7ee2ca4"/>
                </identifier>
                <!--The workflow/clinical status of this composition.
                The status is a marker for the clinical standing of the document.-->
                <status value="final"/>
                <type>
                    <!--Discharge Summary document type-->
                    <coding>
                        <system value="http://snomed.info/sct"/>
                        <code value="373942005"/>
                        <display value="Discharge summary"/>
                    </coding>
                </type>
                <!--Reference to the patient subject of the Composition-->
                <subject>
                    <reference value="urn:uuid:31686b67-9f20-4644-9a54-193d2f91de57"/>
                </subject>
                <!--Reference to the clinical encounter or type of care this documentation is associated with.-->
                <encounter>
                    <reference value="urn:uuid:4f36b35a-ad18-4ea9-a3fb-c893f709e88a"/>
                </encounter>
                <!--The composition editing time, when the composition was last logically changed by the author.-->
                <date value="2015-02-17T10:00:00+00:00"/>
                <!--Identifies who is responsible for the information in the composition, not necessarily who typed it in-->
                <author>
                    <reference value="urn:uuid:6239b7a7-380d-46ff-a1c5-7abc4e68f8bc"/>
                </author>
                <title value="Discharge summary"/>
                <!--The code specifying the level of confidentiality of the Composition.-->
                <confidentiality value="V"/>
                <!--Identifies the organization responsible for ongoing maintenance of
                and access to the composition/document information.-->
                <custodian>
                    <reference value="urn:uuid:12bba528-a08a-448b-946b-7e8008044025"/>
                </custodian>
                <!--Admission details-->
                <section>
                    <!--The label for this particular section. This will be part of the rendered content for the document,
                    and is often used to build a table of contents.-->
                    <title value="Admission details"/>
                    <!--A SNOMED CT code identifying the kind of content contained within the section-->
                    <code>
                        <coding>
                            <system value="http://snomed.info/sct"/>
                            <code value="886781000000108"/>
                            <display value="Admission details"/>
                        </coding>
                    </code>
                    <!--A human-readable narrative that contains the attested content of the section-->
                    <text>
                        <status value="generated"/>
                        <div xmlns="http://www.w3.org/1999/xhtml">
                            <table width="100%">
                                <tbody>
                                    <tr>
                                        <th>Reason for admission</th>
                                        <td>Inferior ischaemic changes</td>
                                    </tr>
                                    <tr>
                                        <th>Admission method</th>
                                        <td>Accident and emergency or dental casualty department of the Health Care Provider</td>
                                    </tr>
                                    <tr>
                                        <th>Date of admission</th>
                                        <td>12-Feb-2015</td>
                                    </tr>
                                    <tr>
                                        <th>Time of admission</th>
                                        <td>09:00</td>
                                    </tr>
                                    <tr>
                                        <th>Source of admission</th>
                                        <td>Usual place of residence</td>
                                    </tr>
                                    <tr>
                                        <th>Patient location</th>
                                        <td>Cramer ward</td>
                                    </tr>
                                </tbody>
                            </table>
                        </div>
                    </text>
                    <!--Specifies the order applied to the items in the section entries-->
                    <orderedBy>
                        <coding>
                            <system value="http://hl7.org/fhir/list-order"/>
                            <code value="system"/>
                            <display value="Sorted by System"/>
                        </coding>
                    </orderedBy>
                    <!--Reference to the encounter resource where information for this section can be found-->
                    <entry>
                        <reference value="urn:uuid:4f36b35a-ad18-4ea9-a3fb-c893f709e88a"/>
                    </entry>
                </section>
                <!--Allergies and adverse reactions-->
                <section>
                    <title value="Allergies and adverse reactions"/>
                    <code>
                        <coding>
                            <system value="http://snomed.info/sct"/>
                            <code value="886921000000105"/>
                            <display value="Allergies and adverse reactions"/>
                        </coding>
                    </code>
                    <text>
                        <status value="generated"/>
                        <div xmlns="http://www.w3.org/1999/xhtml">
                            <table width="100%">
                                <tbody>
                                    <tr>
                                        <th>Allergy/adverse reaction</th>
                                        <td>Allergy to Penicillin</td>
                                    </tr>
                                    <tr>
                                        <th>Causative agent</th>
                                        <td>Penicillin</td>
                                    </tr>
                                    <tr>
                                        <th>Reaction details</th>
                                        <td>Description of reaction:<br/>Rash. No swelling/anaphylaxis</td>
                                    </tr>
                                </tbody>
                            </table>
                        </div>
                    </text>
                    <orderedBy>
                        <coding>
                            <system value="http://hl7.org/fhir/list-order"/>
                            <code value="system"/>
                            <display value="Sorted by System"/>
                        </coding>
                    </orderedBy>
                    <!--Reference to Allergies List as the source of information for this section-->
                    <entry>
                        <reference value="urn:uuid:95e8f8d0-dfc3-4c72-a9dc-7ba1ccd1fab4"/>
                    </entry>
                </section>
                <!--Assessment scales-->
                <section>
                    <title value="Assessment scales"/>
                    <code>
                        <coding>
                            <system value="http://snomed.info/sct"/>
                            <code value="887141000000103"/>
                            <display value="Assessment scales"/>
                        </coding>
                    </code>
                    <text>
                        <status value="generated"/>
                        <div xmlns="http://www.w3.org/1999/xhtml">
                            <table width="100%">
                                <tbody>
                                    <tr>
                                        <th>Assessment scales</th>
                                        <td>TIMI score=2</td>
                                    </tr>
                                </tbody>
                            </table>
                        </div>
                    </text>
                </section>
                <!--Clinical summary-->
                <section>
                    <title value="Clinical summary"/>
                    <code>
                        <coding>
                            <system value="http://snomed.info/sct"/>
                            <code value="887181000000106"/>
                            <display value="Clinical summary"/>
                        </coding>
                    </code>
                    <text>
                        <status value="generated"/>
                        <div xmlns="http://www.w3.org/1999/xhtml">
                            <table width="100%">
                                <tbody>
                                    <tr>
                                        <th>Clinical Summary</th>
                                    </tr>
                                    <tr>
                                        <td>
                                            <p>60 year old man complaining of chest pain lasting around 2 hours.</p>
                                            <p>Examination unremarkable.</p>
                                            <p>Inferior ischaemic changes on ECGs.</p>
                                            <p>Coronary angiogram demonstrated diseased RCA, drug eluting stent successfully placed.</p>
                                            <p>Appropriate secondary prevention medications prescribed for follow up with Cardiac Rehabilitation team.</p>
                                        </td>
                                    </tr>
                                </tbody>
                            </table>
                        </div>
                    </text>
                </section>
                <!--Diagnoses-->
                <section>
                    <title value="Diagnoses"/>
                    <code>
                        <coding>
                            <system value="http://snomed.info/sct"/>
                            <code value="887161000000102"/>
                            <display value="Diagnoses"/>
                        </coding>
                    </code>
                    <text>
                        <status value="generated"/>
                        <div xmlns="http://www.w3.org/1999/xhtml">
                            <table width="100%">
                                <tbody>
                                    <tr>
                                        <th>Diagnosis/symptom</th>
                                        <td>Diagnosis/symptom: Chest pain</td>
                                    </tr>
                                    <tr>
                                        <th>Comment</th>
                                        <td>Chest pain onset date/time: 2015-02-12 08:00</td>
                                    </tr>
                                    <tr>
                                        <th>Diagnosis/symptom</th>
                                        <td>Diagnosis/symptom: ACS</td>
                                    </tr>
                                    <tr>
                                        <th>Diagnosis/symptom</th>
                                        <td>Diagnosis/symptom: ECG: inferior ischaemia</td>
                                    </tr>
                                </tbody>
                            </table>
                        </div>
                    </text>
                    <orderedBy>
                        <coding>
                            <system value="http://hl7.org/fhir/list-order"/>
                            <code value="system"/>
                            <display value="Sorted by System"/>
                        </coding>
                    </orderedBy>
                    <entry>
                        <reference value="urn:uuid:8197e5be-1483-48e6-bf30-842f5184d4cf"/>
                    </entry>
                    <entry>
                        <reference value="urn:uuid:6b639186-a9cd-43b0-9880-9ddb7902b934"/>
                    </entry>
                    <entry>
                        <reference value="urn:uuid:75100753-5bb3-4b75-9969-5a19158f84a6"/>
                    </entry>
                </section>
                <!--Discharge details-->
                <section>
                    <title value="Discharge details"/>
                    <code>
                        <coding>
                            <system value="http://snomed.info/sct"/>
                            <code value="886811000000106"/>
                            <display value="Discharge details"/>
                        </coding>
                    </code>
                    <text>
                        <status value="generated"/>
                        <div xmlns="http://www.w3.org/1999/xhtml">
                            <table width="100%">
                                <tbody>
                                    <tr>
                                        <th>Discharging consultant</th>
                                        <td>Dr Paul Rastall</td>
                                    </tr>
                                    <tr>
                                        <th>Date of discharge</th>
                                        <td>16-Feb-2015</td>
                                    </tr>
                                    <tr>
                                        <th>Time of discharge</th>
                                        <td>09:00</td>
                                    </tr>
                                    <tr>
                                        <th>Discharge method</th>
                                        <td>Patient discharged on clinical advice or with clinical consent</td>
                                    </tr>
                                    <tr>
                                        <th>Discharge destination</th>
                                        <td>Discharge type: Usual place of residence</td>
                                    </tr>
                                </tbody>
                            </table>
                        </div>
                    </text>
                    <orderedBy>
                        <coding>
                            <system value="http://hl7.org/fhir/list-order"/>
                            <code value="system"/>
                            <display value="Sorted by System"/>
                        </coding>
                    </orderedBy>
                    <!--Reference to the Encounter entry as the source of information for this section-->
                    <entry>
                        <reference value="urn:uuid:4f36b35a-ad18-4ea9-a3fb-c893f709e88a"/>
                    </entry>
                </section>
                <!--Individual requirements-->
                <section>
                    <title value="Individual requirements"/>
                    <code>
                        <coding>
                            <system value="http://snomed.info/sct"/>
                            <code value="1052901000000109"/>
                            <display value="Individual requirement"/>
                        </coding>
                    </code>
                    <text>
                        <status value="generated"/>
                        <div xmlns="http://www.w3.org/1999/xhtml">
                            <table width="100%">
                                <tbody>
                                    <tr>
                                        <th>Individual requirement</th>
                                        <td>Hospital needs to arrange for transportation to the patient's home,
                                            and inform social services that the patient needs a carer.</td>
                                    </tr>
                                </tbody>
                            </table>
                        </div>
                    </text>
                </section>
                <!--Information and advice given-->
                <section>
                    <title value="Information and advice given"/>
                    <code>
                        <coding>
                            <system value="http://snomed.info/sct"/>
                            <code value="1052951000000105"/>
                            <display value="Information and advice given"/>
                        </coding>
                    </code>
                    <text>
                        <status value="generated"/>
                        <div xmlns="http://www.w3.org/1999/xhtml">
                            <table width="100%">
                                <tbody>
                                    <tr>
                                        <th>Information and advice given</th>
                                        <td>Patient seen by Cardiac Rehab and information given regarding diagnosis,
                                            lifestyle change and benefits of rehab programme. Community follow up planned.</td>
                                    </tr>
                                </tbody>
                            </table>
                        </div>
                    </text>
                </section>
                <!--Investigations and procedures requested-->
                <section>
                    <title value="Investigations and procedures requested"/>
                    <code>
                        <coding>
                            <system value="http://snomed.info/sct"/>
                            <code value="1064471000000105"/>
                            <display value="Investigations requested"/>
                        </coding>
                    </code>
                    <text>
                        <status value="generated"/>
                        <div xmlns="http://www.w3.org/1999/xhtml">
                            <table>
                                <tbody>
                                    <tr>
                                        <th>Investigations requested</th>
                                    </tr>
                                    <tr>
                                        <td>Follow-up full blood count tests should be carried out 2 weeks after the patient is discharged.</td>
                                    </tr>
                                </tbody>
                            </table>
                        </div>
                    </text>
                </section>
                <!--Investigation results-->
                <section>
                    <title value="Investigation results"/>
                    <code>
                        <coding>
                            <system value="http://snomed.info/sct"/>
                            <code value="1082101000000102"/>
                            <display value="Investigation results"/>
                        </coding>
                    </code>
                    <text>
                        <status value="generated"/>
                        <div xmlns="http://www.w3.org/1999/xhtml">
                            <table>
                                <tbody>
                                    <tr>
                                        <th>Investigation result</th>
                                    </tr>
                                    <tr>
                                        <td>
                                            <pre>
                                                Full Blood Count

                                                Test						Value			Units			Reference Range
                                                White Cell Count				11.1			x10*9/L			3.5 - 10.0
                                                Red Cell Count					5.0			x10*12/L		4.25 - 5.75
                                                Haemoglobin					150			g/L			13.0 - 17.0
                                                Haematocrit					0.230						0.400 - 0.500
                                                Mean Cell Volume				90			fL			84 - 98
                                                Mean Cell Hb					33.0			pg			27.5 - 32.0
                                                Mean Cell Hb Con				34.0			pg			31.0 - 35.0
                                                RDW						12.0			%			&lt; 14.5
                                                Platelet Count					300			x10*9/L			150 - 400

                                                Machine Differential

                                                Test                  				Value			Units        		Reference Range
                                                Neutrophils					7.0			x10*9/L			1.7 - 7.5
                                                Lymphocytes					3.5			x10*9/L			1.0 - 3.5
                                                Monocytes					0.3			x10*9/L			&lt; 0.6
                                                Eosinophils					0.4			x10*9/L			&lt; 0.4
                                                Basophils					0.1			x10*9/L			&lt; 0.1
                                                LUCs						0.2			x10*9/L			&lt; 0.4
                                            </pre>
                                        </td>
                                    </tr>
                                </tbody>
                            </table>
                        </div>
                    </text>
                </section>
                <!--Legal information-->
                <section>
                    <title value="Legal information"/>
                    <code>
                        <coding>
                            <system value="http://snomed.info/sct"/>
                            <code value="886961000000102"/>
                            <display value="Legal information"/>
                        </coding>
                    </code>
                    <text>
                        <status value="generated"/>
                        <div xmlns="http://www.w3.org/1999/xhtml">
                            <table width="100%">
                                <tbody>
                                    <tr>
                                        <th>Advance decision to refuse treatment (ADRT)</th>
                                        <td>Declines blood products - patient is a Jehovah's witness</td>
                                    </tr>
                                </tbody>
                            </table>
                        </div>
                    </text>
                </section>
                <!--Medications-->
                <section>
                    <title value="Medications and medical devices"/>
                    <code>
                        <coding>
                            <system value="http://snomed.info/sct"/>
                            <code value="933361000000108"/>
                            <display value="Medications and medical devices"/>
                        </coding>
                    </code>
                    <text>
                        <status value="generated"/>
                        <div xmlns="http://www.w3.org/1999/xhtml">
                            <table width="100%">
                                <tbody>
                                    <tr>
                                        <th>Medication name</th>
                                        <td>Ramipril</td>
                                    </tr>
                                    <tr>
                                        <th>Dose</th>
                                        <td>2.5mg</td>
                                    </tr>
                                    <tr>
                                        <th>Medication frequency</th>
                                        <td>OD</td>
                                    </tr>
                                    <tr>
                                        <th>Route</th>
                                        <td>oral</td>
                                    </tr>
                                    <tr>
                                        <th>Medication change</th>
                                        <td>Status: Continued</td>
                                    </tr>
                                </tbody>
                            </table>
                            <table width="100%">
                                <tbody>
                                    <tr>
                                        <th>Medication name</th>
                                        <td>Omeprazole</td>
                                    </tr>
                                    <tr>
                                        <th>Dose</th>
                                        <td>20mg</td>
                                    </tr>
                                    <tr>
                                        <th>Medication frequency</th>
                                        <td>OD/PRN</td>
                                    </tr>
                                    <tr>
                                        <th>Route</th>
                                        <td>oral</td>
                                    </tr>
                                    <tr>
                                        <th>Medication change</th>
                                        <td>Status: Continued</td>
                                    </tr>
                                </tbody>
                            </table>
                            <table width="100%">
                                <tbody>
                                    <tr>
                                        <th>Medication name</th>
                                        <td>Aspirin</td>
                                    </tr>
                                    <tr>
                                        <th>Dose</th>
                                        <td>75mg</td>
                                    </tr>
                                    <tr>
                                        <th>Medication frequency</th>
                                        <td>OD</td>
                                    </tr>
                                    <tr>
                                        <th>Route</th>
                                        <td>oral</td>
                                    </tr>
                                    <tr>
                                        <th>Medication change</th>
                                        <td>Status: Continued</td>
                                    </tr>
                                </tbody>
                            </table>
                            <table width="100%">
                                <tbody>
                                    <tr>
                                        <th>Medication name</th>
                                        <td>Clopidogrel</td>
                                    </tr>
                                    <tr>
                                        <th>Dose</th>
                                        <td>75mg</td>
                                    </tr>
                                    <tr>
                                        <th>Medication frequency</th>
                                        <td>OD</td>
                                    </tr>
                                    <tr>
                                        <th>Route</th>
                                        <td>oral</td>
                                    </tr>
                                    <tr>
                                        <th>Medication recommendations</th>
                                        <td>1 year then stop</td>
                                    </tr>
                                </tbody>
                            </table>
                            <table width="100%">
                                <tbody>
                                    <tr>
                                        <th>Medication name</th>
                                        <td>Simvastatin</td>
                                    </tr>
                                    <tr>
                                        <th>Dose</th>
                                        <td>40mg</td>
                                    </tr>
                                    <tr>
                                        <th>Medication frequency</th>
                                        <td>OD</td>
                                    </tr>
                                    <tr>
                                        <th>Route</th>
                                        <td>oral</td>
                                    </tr>
                                    <tr>
                                        <th>Medication change</th>
                                        <td>Status: Continued</td>
                                    </tr>
                                </tbody>
                            </table>
                            <table width="100%">
                                <tbody>
                                    <tr>
                                        <th>Medication name</th>
                                        <td>Bisoprolol</td>
                                    </tr>
                                    <tr>
                                        <th>Dose</th>
                                        <td>5mg</td>
                                    </tr>
                                    <tr>
                                        <th>Medication frequency</th>
                                        <td>OD</td>
                                    </tr>
                                    <tr>
                                        <th>Route</th>
                                        <td>oral</td>
                                    </tr>
                                    <tr>
                                        <th>Medication recommendations</th>
                                        <td>Uptitrate according to BP and HR</td>
                                    </tr>
                                </tbody>
                            </table>
                        </div>
                    </text>
                    <orderedBy>
                        <coding>
                            <system value="http://hl7.org/fhir/list-order"/>
                            <code value="system"/>
                            <display value="Sorted by System"/>
                        </coding>
                    </orderedBy>
                    <!--Reference to medication list-->
                    <entry>
                        <reference value="urn:uuid:d0710501-2e32-4cbd-bd63-a14354bbcd0f"/>
                    </entry>
                </section>
                <!--Participation in research-->
                <section>
                    <title value="Participation in research"/>
                    <code>
                        <coding>
                            <system value="http://snomed.info/sct"/>
                            <code value="886751000000102"/>
                            <display value="Participation in research"/>
                        </coding>
                    </code>
                    <text>
                        <status value="generated"/>
                        <div xmlns="http://www.w3.org/1999/xhtml">
                            <table width="100%">
                                <tbody>
                                    <tr>
                                        <th>Participation in research</th>
                                        <td>None</td>
                                    </tr>
                                </tbody>
                            </table>
                        </div>
                    </text>
                </section>
                <!-- Patient and carer concerns, expectations and wishes-->
                <section>
                    <title value="Patient and carer concerns, expectations and wishes"/>
                    <code>
                        <coding>
                            <system value="http://snomed.info/sct"/>
                            <code value="1052941000000107"/>
                            <display value="Patient and carer concerns, expectations and wishes"/>
                        </coding>
                    </code>
                    <text>
                        <status value="generated"/>
                        <div xmlns="http://www.w3.org/1999/xhtml">
                            <table width="100%">
                                <tbody>
                                    <tr>
                                        <th>Person and carer concerns, expectations and wishes</th>
                                        <td>The carer is concerned about the possibility of the patient suffering from a heart attack,
                                            bearing a similarity to the illness of the mother of the patient.
                                            The patient is worried about the impact of their illness on their ability to work and drive.</td>
                                    </tr>
                                </tbody>
                            </table>
                        </div>
                    </text>
                </section>
                <!--Plan and requested actions-->
                <section>
                    <title value="Plan and requested actions"/>
                    <code>
                        <coding>
                            <system value="http://snomed.info/sct"/>
                            <code value="887201000000105"/>
                            <display value="Plan and requested actions"/>
                        </coding>
                    </code>
                    <text>
                        <status value="generated"/>
                        <div xmlns="http://www.w3.org/1999/xhtml">
                            <table width="100%">
                                <tbody>
                                    <tr>
                                        <th>Actions</th>
                                        <td>GP please continue secondary preventative medication. <p>Status: Requested</p>
                                            <p>Doses will be uptitrated by Cardiac Rehab team.</p>
                                            <p>Status: Requested</p>
                                        </td>
                                    </tr>
                                </tbody>
                            </table>
                        </div>
                    </text>
                </section>
                <!--Procedures-->
                <section>
                    <title value="Procedures"/>
                    <code>
                        <coding>
                            <system value="http://snomed.info/sct"/>
                            <code value="887171000000109"/>
                            <display value="Procedures"/>
                        </coding>
                    </code>
                    <text>
                        <status value="generated"/>
                        <div xmlns="http://www.w3.org/1999/xhtml">
                            <table width="100%">
                                <tbody>
                                    <tr>
                                        <th>Procedure</th>
                                        <td>Coronary Angiogram with stent to right coronary artery (RCA).</td>
                                    </tr>
                                    <tr>
                                        <th>Procedure</th>
                                        <td>Electrocardiographic monitoring</td>
                                    </tr>
                                    <tr>
                                        <th>Procedure</th>
                                        <td>Taking patient vital signs assessment</td>
                                    </tr>
                                </tbody>
                            </table>
                        </div>
                    </text>
                    <orderedBy>
                        <coding>
                            <system value="http://hl7.org/fhir/list-order"/>
                            <code value="system"/>
                            <display value="Sorted by System"/>
                        </coding>
                    </orderedBy>
                    <!--reference to further information carried in the procedure resources-->
                    <entry>
                        <reference value="urn:uuid:6ea2da97-73e2-4507-b7a5-f7c0325021a9"/>
                    </entry>
                    <entry>
                        <reference value="urn:uuid:33422ce6-a0e4-4f01-be53-c4cfc59d13bb"/>
                    </entry>
                    <entry>
                        <reference value="urn:uuid:b654bbd5-b6be-4314-974c-65bb48f9e47b"/>
                    </entry>
                </section>
                <!--Referrer details-->
                <section>
                    <title value="Referrer details"/>
                    <code>
                        <coding>
                            <system value="http://snomed.info/sct"/>
                            <code value="1052891000000108"/>
                            <display value="Referrer details"/>
                        </coding>
                    </code>
                    <text>
                        <status value="generated"/>
                        <div xmlns="http://www.w3.org/1999/xhtml">
                            <table width="100%">
                                <tbody>
                                    <tr>
                                        <th>Referrer details</th>
                                        <td>Self referral</td>
                                    </tr>
                                </tbody>
                            </table>
                        </div>
                    </text>
                </section>
                <section>
                    <title value="Safety alerts"/>
                    <code>
                        <coding>
                            <system value="http://snomed.info/sct"/>
                            <code value="886931000000107"/>
                            <display value="Safety alerts"/>
                        </coding>
                    </code>
                    <text>
                        <status value="generated"/>
                        <div xmlns="http://www.w3.org/1999/xhtml">
                            <table width="100%">
                                <tbody>
                                    <tr>
                                        <th>Risks to self</th>
                                        <td>None</td>
                                    </tr>
                                    <tr>
                                        <th>Risks to others</th>
                                        <td>None</td>
                                    </tr>
                                </tbody>
                            </table>
                        </div>
                    </text>
                </section>
                <section>
                    <title value="Social context"/>
                    <code>
                        <coding>
                            <system value="http://snomed.info/sct"/>
                            <code value="887051000000101"/>
                            <display value="Social context"/>
                        </coding>
                    </code>
                    <text>
                        <status value="generated"/>
                        <div xmlns="http://www.w3.org/1999/xhtml">
                            <table width="100%">
                                <tbody>
                                    <tr>
                                        <th>Household composition</th>
                                        <td>Lives with wife</td>
                                    </tr>
                                    <tr>
                                        <th>Occupational history</th>
                                        <td>Self employed electrician</td>
                                    </tr>
                                </tbody>
                            </table>
                        </div>
                    </text>
                </section>
                <!--Person completing record-->
                <section>
                    <title value="Person completing record"/>
                    <code>
                        <coding>
                            <system value="http://snomed.info/sct"/>
                            <code value="887231000000104"/>
                            <display value="Person completing record"/>
                        </coding>
                    </code>
                    <text>
                        <status value="generated"/>
                        <div xmlns="http://www.w3.org/1999/xhtml">
                            <table width="100%">
                                <tbody>
                                    <tr>
                                        <th>Name</th>
                                        <td>Dr Paul Rastall</td>
                                    </tr>
                                    <tr>
                                        <th>Role</th>
                                        <td>On call Dr/Consultant</td>
                                    </tr>
                                    <tr>
                                        <th>Specialty</th>
                                        <td>Medicine</td>
                                    </tr>
                                    <tr>
                                        <th>Professional identifier</th>
                                        <td>6122477</td>
                                    </tr>
                                    <tr>
                                        <th>Contact details</th>
                                        <td>0113 6323200</td>
                                    </tr>
                                    <tr>
                                        <th>Date and time completed</th>
                                        <td>17 Feb 2017 10:00</td>
                                    </tr>
                                </tbody>
                            </table>
                        </div>
                    </text>
                </section>
            </Composition>
        </resource>
    </entry>
    <!--Encounter-->
    <entry>
        <fullUrl value="urn:uuid:4f36b35a-ad18-4ea9-a3fb-c893f709e88a"/>
        <resource>
            <!--Encounter resource providing context for the discharge-->
            <Encounter>
                <id value="4f36b35a-ad18-4ea9-a3fb-c893f709e88a"/>
                <meta>
                    <profile value="https://fhir.nhs.uk/STU3/StructureDefinition/CareConnect-ITK-Encounter-1"/>
                </meta>
                <identifier>
                    <system value="https://tools.ietf.org/html/rfc4122"/>
                    <value value="13c73015-d8fa-4844-8d68-4f856883eca8"/>
                </identifier>
                <status value="finished"/>
                <class>
                    <system value="http://hl7.org/fhir/v3-ActEncounterCode"/>
                    <code value="IMP"/>
                    <display value="inpatient encounter"/>
                </class>
                <!--Specific type of encounter-->
                <type>
                    <coding>
                        <system value="http://snomed.info/sct"/>
                        <code value="24882007"/>
                        <display value="Medical consultation on hospital inpatient"/>
                    </coding>
                </type>
                <!--Reference to the patient as the subject of the Encounter-->
                <subject>
                    <reference value="urn:uuid:31686b67-9f20-4644-9a54-193d2f91de57"/>
                </subject>
                <!--Reference to the participants present during the encounter-->
                <participant>
                    <type>
                        <coding>
                            <system value="http://hl7.org/fhir/v3/ParticipationType"/>
                            <code value="PART"/>
                            <display value="Participation"/>
                        </coding>
                    </type>
                    <individual>
                        <reference value="urn:uuid:a1b3f01d-a302-4c4a-92b7-82c1c98d5e14"/>
                    </individual>
                </participant>
                <participant>
                    <type>
                        <coding>
                            <system value="http://hl7.org/fhir/v3/ParticipationType"/>
                            <code value="CON"/>
                            <display value="consultant"/>
                        </coding>
                    </type>
                    <individual>
                        <reference value="urn:uuid:d25fd1c6-2658-4db7-9af0-86c5f95e8ec9"/>
                    </individual>
                </participant>
                <participant>
                    <type>
                        <coding>
                            <system value="http://hl7.org/fhir/v3/ParticipationType"/>
                            <code value="PART"/>
                            <display value="participation"/>
                        </coding>
                    </type>
                    <individual>
                        <reference value="urn:uuid:732e11d1-327d-4d32-8259-febd74841d6c"/>
                    </individual>
                </participant>
                <participant>
                    <type>
                        <coding>
                            <system value="http://hl7.org/fhir/v3/ParticipationType"/>
                            <code value="DIS"/>
                            <display value="discharger"/>
                        </coding>
                    </type>
                    <individual>
                        <reference value="urn:uuid:6239b7a7-380d-46ff-a1c5-7abc4e68f8bc"/>
                    </individual>
                </participant>
                <period>
                    <start value="2015-02-12T09:00:00+00:00"/>
                    <end value="2015-02-16T09:00:00+00:00"/>
                </period>
                <!--	The list of diagnoses relevant to this encounter-->
                <diagnosis>
                    <!--Reason the encounter takes place (resource)-->
                    <condition>
                        <reference value="urn:uuid:6b639186-a9cd-43b0-9880-9ddb7902b934"/>
                    </condition>
                    <role>
                        <coding>
                            <system value="http://hl7.org/fhir/diagnosis-role"/>
                            <code value="AD"/>
                            <display value="Admission diagnosis"/>
                        </coding>
                    </role>
                </diagnosis>
                <!--Discharge Diagnosis-->
                <diagnosis>
                    <condition>
                        <reference value="urn:uuid:8197e5be-1483-48e6-bf30-842f5184d4cf"/>
                    </condition>
                    <!--Role that this diagnosis has within the encounter-->
                    <role>
                        <coding>
                            <system value="http://hl7.org/fhir/diagnosis-role"/>
                            <code value="DD"/>
                            <display value="Discharge diagnosis"/>
                        </coding>
                    </role>
                </diagnosis>
                <hospitalization>
                    <!--From where patient was admitted-->
                    <admitSource>
                        <coding>
                            <system value="http://hl7.org/fhir/admit-source"/>
                            <code value="emd"/>
                            <display value="From accident/emergency department"/>
                        </coding>
                    </admitSource>
                    <!--	Category or kind of location after discharge-->
                    <dischargeDisposition>
                        <coding>
                            <system value="http://hl7.org/fhir/discharge-disposition"/>
                            <code value="home"/>
                            <display value="Home"/>
                        </coding>
                    </dischargeDisposition>
                </hospitalization>
                <!--List of locations where the patient has been-->
                <location>
                    <!--Location the encounter takes place-->
                    <location>
                        <reference value="urn:uuid:01bb1ccc-577b-4a4a-9fb0-9c8fe9f21fa3"/>
                    </location>
                </location>
            </Encounter>
        </resource>
    </entry>
    <!--Medication list-->
    <entry>
        <fullUrl value="urn:uuid:d0710501-2e32-4cbd-bd63-a14354bbcd0f"/>
        <resource>
            <List>
                <id value="d0710501-2e32-4cbd-bd63-a14354bbcd0f"/>
                <meta>
                    <profile value="https://fhir.nhs.uk/STU3/StructureDefinition/ITK-Medication-List-1"/>
                </meta>
                <identifier>
                    <system value="https://tools.ietf.org/html/rfc4122"/>
                    <value value="cb8e31b2-15d4-4fe6-a690-13934348fbf1"/>
                </identifier>
                <status value="current"/>
                <mode value="snapshot"/>
                <code>
                    <coding>
                        <system value="http://hl7.org/fhir/list-example-use-codes"/>
                        <code value="medications"/>
                        <display value="Medication List"/>
                    </coding>
                </code>
                <subject>
                    <reference value="urn:uuid:31686b67-9f20-4644-9a54-193d2f91de57"/>
                </subject>
                <entry>
                    <flag>
                        <coding>
                            <system value="https://fhir.nhs.uk/STU3/ITK-PatientMedicationChangeType-1"/>
                            <code value="09"/>
                            <display value="Active"/>
                        </coding>
                    </flag>
                    <item>
                        <reference value="urn:uuid:a94d6293-cfc0-45a3-b7a8-ae7040f990f1"/>
                    </item>
                </entry>
                <entry>
                    <flag>
                        <coding>
                            <system value="https://fhir.nhs.uk/STU3/ITK-PatientMedicationChangeType-1"/>
                            <code value="09"/>
                            <display value="Active"/>
                        </coding>
                    </flag>
                    <item>
                        <reference value="urn:uuid:8cb5665c-6d66-4ed2-8cea-97cb8f559252"/>
                    </item>
                </entry>
                <entry>
                    <flag>
                        <coding>
                            <system value="https://fhir.nhs.uk/STU3/ITK-PatientMedicationChangeType-1"/>
                            <code value="09"/>
                            <display value="Active"/>
                        </coding>
                    </flag>
                    <item>
                        <reference value="urn:uuid:934ac400-f197-4bbc-a307-5ce8d271d4dd"/>
                    </item>
                </entry>
                <entry>
                    <flag>
                        <coding>
                            <system value="https://fhir.nhs.uk/STU3/ITK-PatientMedicationChangeType-1"/>
                            <code value="09"/>
                            <display value="Active"/>
                        </coding>
                    </flag>
                    <item>
                        <reference value="urn:uuid:1092404d-00c9-4f9e-b7df-9abbc8762c91"/>
                    </item>
                </entry>
                <entry>
                    <flag>
                        <coding>
                            <system value="https://fhir.nhs.uk/STU3/ITK-PatientMedicationChangeType-1"/>
                            <code value="09"/>
                            <display value="Active"/>
                        </coding>
                    </flag>
                    <item>
                        <reference value="urn:uuid:539258fb-08de-44a4-8683-f72b235c43af"/>
                    </item>
                </entry>
                <entry>
                    <flag>
                        <coding>
                            <system value="https://fhir.nhs.uk/STU3/ITK-PatientMedicationChangeType-1"/>
                            <code value="09"/>
                            <display value="Active"/>
                        </coding>
                    </flag>
                    <item>
                        <reference value="urn:uuid:11baa8fd-b670-47d1-ab3a-183488af5c6e"/>
                    </item>
                </entry>
            </List>
        </resource>
    </entry>
    <!--Medication statement example 1-->
    <entry>
        <fullUrl value="urn:uuid:a94d6293-cfc0-45a3-b7a8-ae7040f990f1"/>
        <resource>
            <MedicationStatement>
                <id value="a94d6293-cfc0-45a3-b7a8-ae7040f990f1"/>
                <meta>
                    <profile value="https://fhir.nhs.uk/STU3/StructureDefinition/CareConnect-ITK-MedicationStatement-1"/>
                </meta>
                <status value="active"/>
                <medicationReference>
                    <reference value="urn:uuid:ebc37408-dc6c-437a-a09f-f7ee88927e3f"/>
                </medicationReference>
                <subject>
                    <reference value="urn:uuid:31686b67-9f20-4644-9a54-193d2f91de57"/>
                </subject>
                <taken value="y"/>
                <dosage>
                    <text value="Take one tablet daily"/>
                    <timing>
                        <repeat>
                            <frequency value="1"/>
                            <period value="1"/>
                            <periodUnit value="d"/>
                        </repeat>
                    </timing>
                    <asNeededBoolean value="false"/>
                    <route>
                        <coding>
                            <system value="http://snomed.info/sct"/>
                            <code value="26643006"/>
                            <display value="Oral"/>
                        </coding>
                    </route>
                    <doseQuantity>
                        <value value="2.5"/>
                        <unit value="mg"/>
                        <system value="http://unitsofmeasure.org"/>
                        <code value="mg"/>
                    </doseQuantity>
                    <maxDosePerPeriod>
                        <numerator>
                            <value value="1"/>
                            <unit value="Tablet"/>
                            <system value="http://snomed.info/sct"/>
                            <code value="385055001"/>
                        </numerator>
                        <denominator>
                            <value value="1"/>
                            <system value="http://unitsofmeasure.org"/>
                            <code value="d"/>
                        </denominator>
                    </maxDosePerPeriod>
                </dosage>
            </MedicationStatement>
        </resource>
    </entry>
    <!--Medication Statement Example 2-->
    <entry>
        <fullUrl value="urn:uuid:8cb5665c-6d66-4ed2-8cea-97cb8f559252"/>
        <resource>
            <MedicationStatement>
                <id value="8cb5665c-6d66-4ed2-8cea-97cb8f559252"/>
                <meta>
                    <profile value="https://fhir.nhs.uk/STU3/StructureDefinition/CareConnect-ITK-MedicationStatement-1"/>
                </meta>
                <status value="active"/>
                <medicationCodeableConcept>
                    <coding>
                        <system value="http://snomed.info/sct"/>
                        <code value="407847009"/>
                        <display value="Omeprazole 20mg gastro-resistant tablets"/>
                    </coding>
                </medicationCodeableConcept>
                <subject>
                    <reference value="urn:uuid:31686b67-9f20-4644-9a54-193d2f91de57"/>
                </subject>
                <taken value="y"/>
                <dosage>
                    <text value="Take one tablet daily as needed"/>
                    <timing>
                        <repeat>
                            <frequency value="1"/>
                            <period value="1"/>
                            <periodUnit value="d"/>
                        </repeat>
                    </timing>
                    <asNeededBoolean value="true"/>
                    <route>
                        <coding>
                            <system value="http://snomed.info/sct"/>
                            <code value="26643006"/>
                            <display value="Oral"/>
                        </coding>
                    </route>
                    <doseQuantity>
                        <value value="20"/>
                        <unit value="mg"/>
                        <system value="http://unitsofmeasure.org"/>
                        <code value="mg"/>
                    </doseQuantity>
                </dosage>
            </MedicationStatement>
        </resource>
    </entry>
    <!--Medication Statement Example 3-->
    <entry>
        <fullUrl value="urn:uuid:934ac400-f197-4bbc-a307-5ce8d271d4dd"/>
        <resource>
            <MedicationStatement>
                <id value="934ac400-f197-4bbc-a307-5ce8d271d4dd"/>
                <meta>
                    <profile value="https://fhir.nhs.uk/STU3/StructureDefinition/CareConnect-ITK-MedicationStatement-1"/>
                </meta>
                <status value="active"/>
                <medicationCodeableConcept>
                    <coding>
                        <system value="http://snomed.info/sct"/>
                        <code value="319781007"/>
                        <display value="Aspirin 75mg gastro-resistant tablets"/>
                    </coding>
                </medicationCodeableConcept>
                <subject>
                    <reference value="urn:uuid:31686b67-9f20-4644-9a54-193d2f91de57"/>
                </subject>
                <taken value="y"/>
                <dosage>
                    <text value="Take one tablet daily"/>
                    <timing>
                        <repeat>
                            <frequency value="1"/>
                            <period value="1"/>
                            <periodUnit value="d"/>
                        </repeat>
                    </timing>
                    <asNeededBoolean value="true"/>
                    <route>
                        <coding>
                            <system value="http://snomed.info/sct"/>
                            <code value="26643006"/>
                            <display value="Oral"/>
                        </coding>
                    </route>
                    <doseQuantity>
                        <value value="75"/>
                        <unit value="mg"/>
                        <system value="http://unitsofmeasure.org"/>
                        <code value="mg"/>
                    </doseQuantity>
                    <maxDosePerPeriod>
                        <numerator>
                            <value value="1"/>
                            <unit value="Tablet"/>
                            <system value="http://snomed.info/sct"/>
                            <code value="385055001"/>
                        </numerator>
                        <denominator>
                            <value value="1"/>
                            <system value="http://unitsofmeasure.org"/>
                            <code value="d"/>
                        </denominator>
                    </maxDosePerPeriod>
                </dosage>
            </MedicationStatement>
        </resource>
    </entry>
    <!--Medication Statement Example 4-->
    <entry>
        <fullUrl value="urn:uuid:1092404d-00c9-4f9e-b7df-9abbc8762c91"/>
        <resource>
            <MedicationStatement>
                <id value="1092404d-00c9-4f9e-b7df-9abbc8762c91"/>
                <meta>
                    <profile value="https://fhir.nhs.uk/STU3/StructureDefinition/CareConnect-ITK-MedicationStatement-1"/>
                </meta>
                <status value="active"/>
                <medicationCodeableConcept>
                    <coding>
                        <system value="http://snomed.info/sct"/>
                        <code value="319799004"/>
                        <display value="Clopidogrel 75mg tablets"/>
                    </coding>
                </medicationCodeableConcept>
                <subject>
                    <reference value="urn:uuid:31686b67-9f20-4644-9a54-193d2f91de57"/>
                </subject>
                <taken value="y"/>
                <dosage>
                    <text value="Take one tablet daily"/>
                    <timing>
                        <repeat>
                            <frequency value="1"/>
                            <period value="1"/>
                            <periodUnit value="d"/>
                        </repeat>
                    </timing>
                    <asNeededBoolean value="false"/>
                    <route>
                        <coding>
                            <system value="http://snomed.info/sct"/>
                            <code value="26643006"/>
                            <display value="Oral"/>
                        </coding>
                    </route>
                    <doseQuantity>
                        <value value="75"/>
                        <unit value="mg"/>
                        <system value="http://unitsofmeasure.org"/>
                        <code value="mg"/>
                    </doseQuantity>
                    <maxDosePerPeriod>
                        <numerator>
                            <value value="1"/>
                            <unit value="Tablet"/>
                            <system value="http://snomed.info/sct"/>
                            <code value="385055001"/>
                        </numerator>
                        <denominator>
                            <value value="1"/>
                            <system value="http://unitsofmeasure.org"/>
                            <code value="d"/>
                        </denominator>
                    </maxDosePerPeriod>
                </dosage>
            </MedicationStatement>
        </resource>
    </entry>
    <!--Medication Statement Example 5-->
    <entry>
        <fullUrl value="urn:uuid:539258fb-08de-44a4-8683-f72b235c43af"/>
        <resource>
            <MedicationStatement>
                <id value="539258fb-08de-44a4-8683-f72b235c43af"/>
                <meta>
                    <profile value="https://fhir.nhs.uk/STU3/StructureDefinition/CareConnect-ITK-MedicationStatement-1"/>
                </meta>
                <status value="active"/>
                <medicationCodeableConcept>
                    <coding>
                        <system value="http://snomed.info/sct"/>
                        <code value="320000009"/>
                        <display value="Simvastatin 40mg tablets"/>
                    </coding>
                </medicationCodeableConcept>
                <subject>
                    <reference value="urn:uuid:31686b67-9f20-4644-9a54-193d2f91de57"/>
                </subject>
                <taken value="y"/>
                <dosage>
                    <text value="Take one tablet daily"/>
                    <timing>
                        <repeat>
                            <frequency value="1"/>
                            <period value="1"/>
                            <periodUnit value="d"/>
                        </repeat>
                    </timing>
                    <asNeededBoolean value="false"/>
                    <route>
                        <coding>
                            <system value="http://snomed.info/sct"/>
                            <code value="26643006"/>
                            <display value="Oral"/>
                        </coding>
                    </route>
                    <doseQuantity>
                        <value value="40"/>
                        <unit value="mg"/>
                        <system value="http://unitsofmeasure.org"/>
                        <code value="mg"/>
                    </doseQuantity>
                    <maxDosePerPeriod>
                        <numerator>
                            <value value="1"/>
                            <unit value="Tablet"/>
                            <system value="http://snomed.info/sct"/>
                            <code value="385055001"/>
                        </numerator>
                        <denominator>
                            <value value="1"/>
                            <system value="http://unitsofmeasure.org"/>
                            <code value="d"/>
                        </denominator>
                    </maxDosePerPeriod>
                </dosage>
            </MedicationStatement>
        </resource>
    </entry>
    <!--Medication Statement Example 6-->
    <entry>
        <fullUrl value="urn:uuid:11baa8fd-b670-47d1-ab3a-183488af5c6e"/>
        <resource>
            <MedicationStatement>
                <id value="11baa8fd-b670-47d1-ab3a-183488af5c6e"/>
                <meta>
                    <profile value="https://fhir.nhs.uk/STU3/StructureDefinition/CareConnect-ITK-MedicationStatement-1"/>
                </meta>
                <status value="active"/>
                <medicationCodeableConcept>
                    <coding>
                        <system value="http://snomed.info/sct"/>
                        <code value="318590006"/>
                        <display value="Bisoprolol 5mg tablets"/>
                    </coding>
                </medicationCodeableConcept>
                <subject>
                    <reference value="urn:uuid:31686b67-9f20-4644-9a54-193d2f91de57"/>
                </subject>
                <taken value="y"/>
                <dosage>
                    <text value="Take one tablet daily"/>
                    <timing>
                        <repeat>
                            <frequency value="1"/>
                            <period value="1"/>
                            <periodUnit value="d"/>
                        </repeat>
                    </timing>
                    <asNeededBoolean value="false"/>
                    <route>
                        <coding>
                            <system value="http://snomed.info/sct"/>
                            <code value="26643006"/>
                            <display value="Oral"/>
                        </coding>
                    </route>
                    <doseQuantity>
                        <value value="5"/>
                        <unit value="mg"/>
                        <system value="http://unitsofmeasure.org"/>
                        <code value="mg"/>
                    </doseQuantity>
                    <maxDosePerPeriod>
                        <numerator>
                            <value value="1"/>
                            <unit value="Tablet"/>
                            <system value="http://snomed.info/sct"/>
                            <code value="385055001"/>
                        </numerator>
                        <denominator>
                            <value value="1"/>
                            <system value="http://unitsofmeasure.org"/>
                            <code value="d"/>
                        </denominator>
                    </maxDosePerPeriod>
                </dosage>
            </MedicationStatement>
        </resource>
    </entry>
    <!--Medication Example 1-->
    <entry>
        <fullUrl value="urn:uuid:ebc37408-dc6c-437a-a09f-f7ee88927e3f"/>
        <resource>
            <Medication>
                <id value="ebc37408-dc6c-437a-a09f-f7ee88927e3f"/>
                <meta>
                    <profile value="https://fhir.hl7.org.uk/STU3/StructureDefinition/CareConnect-Medication-1"/>
                </meta>
                <code>
                    <coding>
                        <system value="http://snomed.info/sct"/>
                        <code value="408050008"/>
                        <display value="Ramipril 2.5mg tablets"/>
                    </coding>
                </code>
            </Medication>
        </resource>
    </entry>
    <!--Medication Flag Example 1-->
    <entry>
        <fullUrl value="urn:uuid:4adc7662-25d3-4e29-ba7c-2787482e300b"/>
        <resource>
            <Flag>
                <id value="4adc7662-25d3-4e29-ba7c-2787482e300b"/>
                <meta>
                    <profile value="https://fhir.nhs.uk/STU3/StructureDefinition/CareConnect-ITK-Medication-Flag-1"/>
                </meta>
                <!--This references the MedicationStatement.-->
                <extension url="https://fhir.nhs.uk/STU3/StructureDefinition/Extension-CareConnect-ITK-MedicationFlagAssociation-1">
                    <valueReference>
                        <reference value="urn:uuid:a94d6293-cfc0-45a3-b7a8-ae7040f990f1"/>
                    </valueReference>
                </extension>
                <identifier>
                    <system value="https://tools.ietf.org/html/rfc4122"/>
                    <value value="76ef531e-d072-4f62-8c78-e16b35c188c8"/>
                </identifier>
                <status value="active"/>
                <category>
                    <coding>
                        <system value="http://hl7.org/fhir/flag-category"/>
                        <code value="drug"/>
                        <display value="Drug"/>
                    </coding>
                </category>
                <code>
                    <coding>
                        <system value="https://fhir.hl7.org.uk/STU3/CareConnect-MedicationFlag-1"/>
                        <code value="continue-indefinitely"/>
                        <display value="Continue Indefinitely"/>
                    </coding>
                </code>
                <subject>
                    <reference value="urn:uuid:31686b67-9f20-4644-9a54-193d2f91de57"/>
                </subject>
            </Flag>
        </resource>
    </entry>
    <!--Medication Flag Example 2-->
    <entry>
        <fullUrl value="urn:uuid:ce650eb7-432c-4d3c-b75b-7c480c1f8fae"/>
        <resource>
            <Flag>
                <id value="ce650eb7-432c-4d3c-b75b-7c480c1f8fae"/>
                <meta>
                    <profile value="https://fhir.nhs.uk/STU3/StructureDefinition/CareConnect-ITK-Medication-Flag-1"/>
                </meta>
                <extension url="https://fhir.nhs.uk/STU3/StructureDefinition/Extension-CareConnect-ITK-MedicationFlagAssociation-1">
                    <valueReference>
                        <reference value="urn:uuid:8cb5665c-6d66-4ed2-8cea-97cb8f559252"/>
                    </valueReference>
                </extension>
                <identifier>
                    <system value="https://tools.ietf.org/html/rfc4122"/>
                    <value value="abb1c8d5-ec01-4a0d-af12-8251c1cf55fb"/>
                </identifier>
                <status value="active"/>
                <category>
                    <coding>
                        <system value="http://hl7.org/fhir/flag-category"/>
                        <code value="drug"/>
                        <display value="Drug"/>
                    </coding>
                </category>
                <code>
                    <coding>
                        <system value="https://fhir.hl7.org.uk/STU3/CareConnect-MedicationFlag-1"/>
                        <code value="continue-indefinitely"/>
                        <display value="Continue Indefinitely"/>
                    </coding>
                </code>
                <subject>
                    <reference value="urn:uuid:31686b67-9f20-4644-9a54-193d2f91de57"/>
                </subject>
            </Flag>
        </resource>
    </entry>
    <!--Medication Flag Example 3-->
    <entry>
        <fullUrl value="urn:uuid:23a80c56-2b99-414e-9d3f-c885d29cea18"/>
        <resource>
            <Flag>
                <id value="23a80c56-2b99-414e-9d3f-c885d29cea18"/>
                <meta>
                    <profile value="https://fhir.nhs.uk/STU3/StructureDefinition/CareConnect-ITK-Medication-Flag-1"/>
                </meta>
                <extension url="https://fhir.nhs.uk/STU3/StructureDefinition/Extension-CareConnect-ITK-MedicationFlagAssociation-1">
                    <valueReference>
                        <reference value="urn:uuid:934ac400-f197-4bbc-a307-5ce8d271d4dd"/>
                    </valueReference>
                </extension>
                <identifier>
                    <system value="https://tools.ietf.org/html/rfc4122"/>
                    <value value="f47f6e57-1e25-455c-916e-d4b05ba4427b"/>
                </identifier>
                <status value="active"/>
                <category>
                    <coding>
                        <system value="http://hl7.org/fhir/flag-category"/>
                        <code value="drug"/>
                        <display value="Drug"/>
                    </coding>
                </category>
                <code>
                    <coding>
                        <system value="https://fhir.hl7.org.uk/STU3/CareConnect-MedicationFlag-1"/>
                        <code value="continue-indefinitely"/>
                        <display value="Continue Indefinitely"/>
                    </coding>
                </code>
                <subject>
                    <reference value="urn:uuid:31686b67-9f20-4644-9a54-193d2f91de57"/>
                </subject>
            </Flag>
        </resource>
    </entry>
    <!--Medication Flag Example 4-->
    <entry>
        <fullUrl value="urn:uuid:0919ca00-56c4-46f3-b435-8202b00563f0"/>
        <resource>
            <Flag>
                <id value="0919ca00-56c4-46f3-b435-8202b00563f0"/>
                <meta>
                    <profile value="https://fhir.nhs.uk/STU3/StructureDefinition/CareConnect-ITK-Medication-Flag-1"/>
                </meta>
                <extension url="https://fhir.nhs.uk/STU3/StructureDefinition/Extension-CareConnect-ITK-MedicationFlagAssociation-1">
                    <valueReference>
                        <reference value="urn:uuid:1092404d-00c9-4f9e-b7df-9abbc8762c91"/>
                    </valueReference>
                </extension>
                <identifier>
                    <system value="https://tools.ietf.org/html/rfc4122"/>
                    <value value="68c66ebf-b8e4-4030-a00a-1f0ae9aef40d"/>
                </identifier>
                <status value="active"/>
                <category>
                    <coding>
                        <system value="http://hl7.org/fhir/flag-category"/>
                        <code value="drug"/>
                        <display value="Drug"/>
                    </coding>
                </category>
                <code>
                    <coding>
                        <system value="https://fhir.hl7.org.uk/STU3/CareConnect-MedicationFlag-1"/>
                        <code value="do-not-discontinue"/>
                        <display value="Do Not discontinue Medication"/>
                    </coding>
                </code>
                <subject>
                    <reference value="urn:uuid:31686b67-9f20-4644-9a54-193d2f91de57"/>
                </subject>
            </Flag>
        </resource>
    </entry>
    <!--Medication Flag Example 5-->
    <entry>
        <fullUrl value="urn:uuid:b4033faf-2df3-4031-b2b0-fe1b20c6b638"/>
        <resource>
            <Flag>
                <id value="b4033faf-2df3-4031-b2b0-fe1b20c6b638"/>
                <meta>
                    <profile value="https://fhir.nhs.uk/STU3/StructureDefinition/CareConnect-ITK-Medication-Flag-1"/>
                </meta>
                <extension url="https://fhir.nhs.uk/STU3/StructureDefinition/Extension-CareConnect-ITK-MedicationFlagAssociation-1">
                    <valueReference>
                        <reference value="urn:uuid:539258fb-08de-44a4-8683-f72b235c43af"/>
                    </valueReference>
                </extension>
                <identifier>
                    <system value="https://tools.ietf.org/html/rfc4122"/>
                    <value value="8b6c1e3a-1c9b-42f8-bec8-1d5e95c35692"/>
                </identifier>
                <status value="active"/>
                <category>
                    <coding>
                        <system value="http://hl7.org/fhir/flag-category"/>
                        <code value="drug"/>
                        <display value="Drug"/>
                    </coding>
                </category>
                <code>
                    <coding>
                        <system value="https://fhir.hl7.org.uk/STU3/CareConnect-MedicationFlag-1"/>
                        <code value="continue-indefinitely"/>
                        <display value="Continue Indefinitely"/>
                    </coding>
                </code>
                <subject>
                    <reference value="urn:uuid:31686b67-9f20-4644-9a54-193d2f91de57"/>
                </subject>
            </Flag>
        </resource>
    </entry>
    <entry>
        <fullUrl value="urn:uuid:1a4c363c-d238-41d0-9235-cacd81be276a"/>
        <resource>
            <Flag>
                <id value="1a4c363c-d238-41d0-9235-cacd81be276a"/>
                <meta>
                    <profile value="https://fhir.nhs.uk/STU3/StructureDefinition/CareConnect-ITK-Medication-Flag-1"/>
                </meta>
                <extension url="https://fhir.nhs.uk/STU3/StructureDefinition/Extension-CareConnect-ITK-MedicationFlagAssociation-1">
                    <valueReference>
                        <reference value="urn:uuid:11baa8fd-b670-47d1-ab3a-183488af5c6e"/>
                    </valueReference>
                </extension>
                <identifier>
                    <system value="https://tools.ietf.org/html/rfc4122"/>
                    <value value="ae98309a-fe89-4b74-8a10-6f3729f8d9df"/>
                </identifier>
                <status value="active"/>
                <category>
                    <coding>
                        <system value="http://hl7.org/fhir/flag-category"/>
                        <code value="drug"/>
                        <display value="Drug"/>
                    </coding>
                </category>
                <code>
                    <coding>
                        <system value="https://fhir.hl7.org.uk/STU3/CareConnect-MedicationFlag-1"/>
                        <code value="do-not-discontinue"/>
                        <display value="Do Not discontinue Medication"/>
                    </coding>
                    <text value="Uptitrate according to BP and HR."/>
                </code>
                <subject>
                    <reference value="urn:uuid:31686b67-9f20-4644-9a54-193d2f91de57"/>
                </subject>
            </Flag>
        </resource>
    </entry>
    <entry>
        <fullUrl value="urn:uuid:95e8f8d0-dfc3-4c72-a9dc-7ba1ccd1fab4"/>
        <resource>
            <List>
                <id value="95e8f8d0-dfc3-4c72-a9dc-7ba1ccd1fab4"/>
                <meta>
                    <profile value="https://fhir.nhs.uk/STU3/StructureDefinition/ITK-Allergies-List-1"/>
                </meta>
                <identifier>
                    <system value="https://tools.ietf.org/html/rfc4122"/>
                    <value value="6ee0967d-aaa7-411a-9398-518c089ce3a1"/>
                </identifier>
                <status value="current"/>
                <mode value="snapshot"/>
                <code>
                    <coding>
                        <system value="http://hl7.org/fhir/list-example-use-codes"/>
                        <code value="allergies"/>
                        <display value="Allergies"/>
                    </coding>
                </code>
                <subject>
                    <reference value="urn:uuid:31686b67-9f20-4644-9a54-193d2f91de57"/>
                </subject>
                <entry>
                    <flag>
                        <coding>
                            <system value="https://fhir.nhs.uk/STU3/ITK-PatientAllergyChangeType-1"/>
                            <code value="01"/>
                            <display value="Unchanged"/>
                        </coding>
                    </flag>
                    <item>
                        <reference value="urn:uuid:9a1c380c-e8b0-4814-aefc-ee69d39b1079"/>
                    </item>
                </entry>
            </List>
        </resource>
    </entry>
    <entry>
        <fullUrl value="urn:uuid:9a1c380c-e8b0-4814-aefc-ee69d39b1079"/>
        <resource>
            <AllergyIntolerance>
                <id value="9a1c380c-e8b0-4814-aefc-ee69d39b1079"/>
                <meta>
                    <profile value="https://fhir.hl7.org.uk/STU3/StructureDefinition/CareConnect-AllergyIntolerance-1"/>
                </meta>
                <identifier>
                    <system value="https://tools.ietf.org/html/rfc4122"/>
                    <value value="06d65f0f-117a-43c6-84ea-f28c3bd664a2"/>
                </identifier>
                <clinicalStatus value="active"/>
                <verificationStatus value="confirmed"/>
                <type value="allergy"/>
                <category value="medication"/>
                <patient>
                    <reference value="urn:uuid:31686b67-9f20-4644-9a54-193d2f91de57"/>
                </patient>
                <onsetDateTime value="2012-01-12T12:00:00+00:00"/>
                <reaction>
                    <substance>
                        <coding>
                            <system value="http://snomed.info/sct"/>
                            <code value="373270004"/>
                            <display value="Penicillin -class of antibiotic-"/>
                        </coding>
                    </substance>
                    <manifestation>
                        <coding>
                            <system value="http://snomed.info/sct"/>
                            <code value="271807003"/>
                            <display value="Eruption"/>
                        </coding>
                    </manifestation>
                </reaction>
            </AllergyIntolerance>
        </resource>
    </entry>
    <entry>
        <fullUrl value="urn:uuid:61be6900-bc3c-4a28-96dc-746381b7c1be"/>
        <resource>
            <Flag>
                <id value="61be6900-bc3c-4a28-96dc-746381b7c1be"/>
                <meta>
                    <profile value="https://fhir.nhs.uk/STU3/StructureDefinition/ITK-Allergy-Flag-1"/>
                </meta>
                <extension url="https://fhir.nhs.uk/STU3/StructureDefinition/Extension-ITK-AllergyFlagDetail-1">
                    <valueReference>
                        <reference value="urn:uuid:9a1c380c-e8b0-4814-aefc-ee69d39b1079"/>
                    </valueReference>
                </extension>
                <identifier>
                    <system value="https://tools.ietf.org/html/rfc4122"/>
                    <value value="2861cc7e-8916-4009-9aee-4802c3fa951d"/>
                </identifier>
                <status value="active"/>
                <category>
                    <coding>
                        <system value="http://snomed.info/sct"/>
                        <code value="886921000000105"/>
                        <display value="Allergies and adverse reactions"/>
                    </coding>
                </category>
                <code>
                    <coding>
                        <system value="http://snomed.info/sct"/>
                        <code value="416098002"/>
                        <display value="Drug allergy"/>
                    </coding>
                </code>
                <subject>
                    <reference value="urn:uuid:31686b67-9f20-4644-9a54-193d2f91de57"/>
                </subject>
            </Flag>
        </resource>
    </entry>
    <!--Condition example 1-->
    <entry>
        <fullUrl value="urn:uuid:8197e5be-1483-48e6-bf30-842f5184d4cf"/>
        <resource>
            <Condition>
                <id value="8197e5be-1483-48e6-bf30-842f5184d4cf"/>
                <meta>
                    <profile value="https://fhir.nhs.uk/STU3/StructureDefinition/CareConnect-ITK-Condition-1"/>
                </meta>
                <identifier>
                    <system value="https://tools.ietf.org/html/rfc4122"/>
                    <value value="967d26cb-10cd-4291-9d5c-30ac79e42719"/>
                </identifier>
                <clinicalStatus value="active"/>
                <verificationStatus value="confirmed"/>
                <category>
                    <coding>
                        <system value="https://fhir.hl7.org.uk/STU3/CareConnect-ConditionCategory-1"/>
                        <code value="diagnosis"/>
                        <display value="Diagnosis"/>
                    </coding>
                </category>
                <code>
                    <coding>
                        <system value="http://snomed.info/sct"/>
                        <code value="394659003"/>
                        <display value="Acute coronary syndrome"/>
                    </coding>
                </code>
                <subject>
                    <reference value="urn:uuid:31686b67-9f20-4644-9a54-193d2f91de57"/>
                </subject>
                <context>
                    <reference value="urn:uuid:4f36b35a-ad18-4ea9-a3fb-c893f709e88a"/>
                </context>
                <onsetDateTime value="2015-02-12T12:00:00+00:00"/>
                <assertedDate value="2015-02-12"/>
                <asserter>
                    <reference value="urn:uuid:d25fd1c6-2658-4db7-9af0-86c5f95e8ec9"/>
                </asserter>
            </Condition>
        </resource>
    </entry>
    <!--Condition example 2-->
    <entry>
        <fullUrl value="urn:uuid:6b639186-a9cd-43b0-9880-9ddb7902b934"/>
        <resource>
            <Condition>
                <id value="6b639186-a9cd-43b0-9880-9ddb7902b934"/>
                <meta>
                    <profile value="https://fhir.nhs.uk/STU3/StructureDefinition/CareConnect-ITK-Condition-1"/>
                </meta>
                <identifier>
                    <system value="https://tools.ietf.org/html/rfc4122"/>
                    <value value="968f8e5c-7e5f-4d15-bc15-8e7ffa59917b"/>
                </identifier>
                <clinicalStatus value="active"/>
                <verificationStatus value="confirmed"/>
                <category>
                    <coding>
                        <system value="https://fhir.hl7.org.uk/STU3/CareConnect-ConditionCategory-1"/>
                        <code value="diagnosis"/>
                        <display value="Diagnosis"/>
                    </coding>
                </category>
                <code>
                    <coding>
                        <system value="http://snomed.info/sct"/>
                        <code value="425419005"/>
                        <display value="ECG: inferior ischaemia"/>
                    </coding>
                </code>
                <subject>
                    <reference value="urn:uuid:31686b67-9f20-4644-9a54-193d2f91de57"/>
                </subject>
                <context>
                    <reference value="urn:uuid:4f36b35a-ad18-4ea9-a3fb-c893f709e88a"/>
                </context>
                <onsetDateTime value="2015-02-12T12:00:00+00:00"/>
                <assertedDate value="2015-02-12"/>
                <asserter>
                    <reference value="urn:uuid:732e11d1-327d-4d32-8259-febd74841d6c"/>
                </asserter>
            </Condition>
        </resource>
    </entry>
    <!--Condition example 3-->
    <entry>
        <fullUrl value="urn:uuid:75100753-5bb3-4b75-9969-5a19158f84a6"/>
        <resource>
            <Condition>
                <id value="75100753-5bb3-4b75-9969-5a19158f84a6"/>
                <meta>
                    <profile value="https://fhir.nhs.uk/STU3/StructureDefinition/CareConnect-ITK-Condition-1"/>
                </meta>
                <identifier>
                    <system value="https://tools.ietf.org/html/rfc4122"/>
                    <value value="f5391b25-7ac6-440e-be2f-71e2eaaf4571"/>
                </identifier>
                <clinicalStatus value="active"/>
                <verificationStatus value="confirmed"/>
                <category>
                    <coding>
                        <system value="https://fhir.hl7.org.uk/STU3/CareConnect-ConditionCategory-1"/>
                        <code value="complaint"/>
                        <display value="Complaint"/>
                    </coding>
                </category>
                <code>
                    <coding>
                        <system value="http://snomed.info/sct"/>
                        <code value="29857009"/>
                        <display value="Chest pain"/>
                    </coding>
                </code>
                <subject>
                    <reference value="urn:uuid:31686b67-9f20-4644-9a54-193d2f91de57"/>
                </subject>
                <onsetDateTime value="2015-02-12T08:00:00+00:00"/>
                <assertedDate value="2015-02-12"/>
                <asserter>
                    <reference value="urn:uuid:31686b67-9f20-4644-9a54-193d2f91de57"/>
                </asserter>
            </Condition>
        </resource>
    </entry>
    <!--Procedure Example 1-->
    <entry>
        <fullUrl value="urn:uuid:33422ce6-a0e4-4f01-be53-c4cfc59d13bb"/>
        <resource>
            <Procedure>
                <id value="33422ce6-a0e4-4f01-be53-c4cfc59d13bb"/>
                <meta>
                    <profile value="https://fhir.nhs.uk/STU3/StructureDefinition/CareConnect-ITK-Procedure-1"/>
                </meta>
                <extension url="https://fhir.hl7.org.uk/STU3/StructureDefinition/Extension-CareConnect-DateRecorded-1">
                    <valueDateTime value="2015-02-12"/>
                </extension>
                <identifier>
                    <system value="https://tools.ietf.org/html/rfc4122"/>
                    <value value="5d56c9eb-fb83-4a1d-948a-af8e3809e594"/>
                </identifier>
                <status value="completed"/>
                <code>
                    <coding>
                        <system value="http://snomed.info/sct"/>
                        <code value="46825001"/>
                        <display value="Electrocardiographic monitoring"/>
                    </coding>
                </code>
                <subject>
                    <reference value="urn:uuid:31686b67-9f20-4644-9a54-193d2f91de57"/>
                </subject>
                <context>
                    <reference value="urn:uuid:4f36b35a-ad18-4ea9-a3fb-c893f709e88a"/>
                </context>
                <performedDateTime value="2015-02-12T10:30:00+00:00"/>
                <performer>
                    <actor>
                        <reference value="urn:uuid:732e11d1-327d-4d32-8259-febd74841d6c"/>
                    </actor>
                </performer>
                <bodySite>
                    <coding>
                        <system value="http://snomed.info/sct"/>
                        <code value="80891009"/>
                        <display value="Heart structure"/>
                    </coding>
                </bodySite>
            </Procedure>
        </resource>
    </entry>
    <!--Procedure Example 2-->
    <entry>
        <fullUrl value="urn:uuid:6ea2da97-73e2-4507-b7a5-f7c0325021a9"/>
        <resource>
            <Procedure>
                <id value="6ea2da97-73e2-4507-b7a5-f7c0325021a9"/>
                <meta>
                    <profile value="https://fhir.nhs.uk/STU3/StructureDefinition/CareConnect-ITK-Procedure-1"/>
                </meta>
                <extension url="https://fhir.hl7.org.uk/STU3/StructureDefinition/Extension-CareConnect-DateRecorded-1">
                    <valueDateTime value="2015-02-13"/>
                </extension>
                <identifier>
                    <system value="https://tools.ietf.org/html/rfc4122"/>
                    <value value="1f2f7b4e-8a61-4211-95b6-034a9a85df58"/>
                </identifier>
                <status value="completed"/>
                <code>
                    <coding>
                        <system value="http://snomed.info/sct"/>
                        <code value="418982001"/>
                        <display value="Fluoroscopic angiography of coronary artery and insertion of stent"/>
                    </coding>
                </code>
                <subject>
                    <reference value="urn:uuid:31686b67-9f20-4644-9a54-193d2f91de57"/>
                </subject>
                <context>
                    <reference value="urn:uuid:4f36b35a-ad18-4ea9-a3fb-c893f709e88a"/>
                </context>
                <performedDateTime value="2015-02-12T21:30:00+00:00"/>
                <performer>
                    <actor>
                        <reference value="urn:uuid:d25fd1c6-2658-4db7-9af0-86c5f95e8ec9"/>
                    </actor>
                </performer>
                <bodySite>
                    <coding>
                        <system value="http://snomed.info/sct"/>
                        <code value="13647002"/>
                        <display value="Right coronary artery structure"/>
                    </coding>
                </bodySite>
            </Procedure>
        </resource>
    </entry>
    <!--Procedure Example 3-->
    <entry>
        <fullUrl value="urn:uuid:b654bbd5-b6be-4314-974c-65bb48f9e47b"/>
        <resource>
            <Procedure>
                <id value="b654bbd5-b6be-4314-974c-65bb48f9e47b"/>
                <meta>
                    <profile value="https://fhir.nhs.uk/STU3/StructureDefinition/CareConnect-ITK-Procedure-1"/>
                </meta>
                <extension url="https://fhir.hl7.org.uk/STU3/StructureDefinition/Extension-CareConnect-DateRecorded-1">
                    <valueDateTime value="2015-02-12"/>
                </extension>
                <identifier>
                    <system value="https://tools.ietf.org/html/rfc4122"/>
                    <value value="bbf5f5fd-ddba-41f1-9e75-01e7ecd0dd94"/>
                </identifier>
                <status value="completed"/>
                <code>
                    <coding>
                        <system value="http://snomed.info/sct"/>
                        <code value="410188000"/>
                        <display value="Taking patient vital signs assessment"/>
                    </coding>
                </code>
                <subject>
                    <reference value="urn:uuid:31686b67-9f20-4644-9a54-193d2f91de57"/>
                </subject>
                <context>
                    <reference value="urn:uuid:4f36b35a-ad18-4ea9-a3fb-c893f709e88a"/>
                </context>
                <performedDateTime value="2015-02-12T10:00:00+00:00"/>
                <performer>
                    <actor>
                        <reference value="urn:uuid:732e11d1-327d-4d32-8259-febd74841d6c"/>
                    </actor>
                </performer>
                <bodySite>
                    <coding>
                        <system value="http://snomed.info/sct"/>
                        <code value="80891009"/>
                        <display value="Heart structure"/>
                    </coding>
                </bodySite>
            </Procedure>
        </resource>
    </entry>
    <!--Patient example-->
    <entry>
        <fullUrl value="urn:uuid:31686b67-9f20-4644-9a54-193d2f91de57"/>
        <resource>
            <Patient>
                <id value="31686b67-9f20-4644-9a54-193d2f91de57"/>
                <meta>
                    <profile value="https://fhir.hl7.org.uk/STU3/StructureDefinition/CareConnect-Patient-1"/>
                </meta>
                <extension url="https://fhir.hl7.org.uk/STU3/StructureDefinition/Extension-CareConnect-EthnicCategory-1">
                    <valueCodeableConcept>
                        <coding>
                            <system value="https://fhir.hl7.org.uk/STU3/CareConnect-EthnicCategory-1"/>
                            <code value="A"/>
                            <display value="British, Mixed British"/>
                        </coding>
                    </valueCodeableConcept>
                </extension>
                <extension url="https://fhir.hl7.org.uk/STU3/StructureDefinition/Extension-CareConnect-ReligiousAffiliation-1">
                    <valueCodeableConcept>
                        <coding>
                            <system value="http://snomed.info/sct"/>
                            <code value="80587008"/>
                            <display value="Jehovah's Witness, follower of religion"/>
                        </coding>
                    </valueCodeableConcept>
                </extension>
                <extension url="http://hl7.org/fhir/StructureDefinition/patient-cadavericDonor">
                    <valueBoolean value="false"/>
                </extension>
                <extension url="https://fhir.hl7.org.uk/STU3/StructureDefinition/Extension-CareConnect-ResidentialStatus-1">
                    <valueCodeableConcept>
                        <coding>
                            <system value="https://fhir.hl7.org.uk/STU3/CareConnect-ResidentialStatus-1"/>
                            <code value="H"/>
                            <display value="UK Resident"/>
                        </coding>
                    </valueCodeableConcept>
                </extension>
                <extension url="https://fhir.hl7.org.uk/STU3/StructureDefinition/Extension-CareConnect-TreatmentCategory-1">
                    <valueCodeableConcept>
                        <coding>
                            <system value="https://fhir.hl7.org.uk/STU3/CareConnect-TreatmentCategory-1"/>
                            <code value="8"/>
                            <display value="Not applicable"/>
                        </coding>
                    </valueCodeableConcept>
                </extension>
                <extension url="https://fhir.hl7.org.uk/STU3/StructureDefinition/Extension-CareConnect-NHSCommunication-1">
                    <extension url="language">
                        <valueCodeableConcept>
                            <coding>
                                <system value="https://fhir.hl7.org.uk/STU3/CareConnect-HumanLanguage-1"/>
                                <code value="en"/>
                                <display value="English"/>
                            </coding>
                        </valueCodeableConcept>
                    </extension>
                    <extension url="preferred">
                        <valueBoolean value="true"/>
                    </extension>
                    <extension url="modeOfCommunication">
                        <valueCodeableConcept>
                            <coding>
                                <system value="https://fhir.hl7.org.uk/STU3/CareConnect-LanguageAbilityMode-1"/>
                                <code value="ESP"/>
                                <display value="Expressed spoken"/>
                            </coding>
                        </valueCodeableConcept>
                    </extension>
                    <extension url="modeOfCommunication">
                        <valueCodeableConcept>
                            <coding>
                                <system value="https://fhir.hl7.org.uk/STU3/CareConnect-LanguageAbilityMode-1"/>
                                <code value="RWR"/>
                                <display value="Received written"/>
                            </coding>
                        </valueCodeableConcept>
                    </extension>
                    <extension url="communicationProficiency">
                        <valueCodeableConcept>
                            <coding>
                                <system value="https://fhir.hl7.org.uk/STU3/CareConnect-LanguageAbilityProficiency-1"/>
                                <code value="E"/>
                                <display value="Excellent"/>
                            </coding>
                        </valueCodeableConcept>
                    </extension>
                    <extension url="interpreterRequired">
                        <valueBoolean value="false"/>
                    </extension>
                </extension>
                <identifier>
                    <extension url="https://fhir.hl7.org.uk/STU3/StructureDefinition/Extension-CareConnect-NHSNumberVerificationStatus-1">
                        <valueCodeableConcept>
                            <coding>
                                <system value="https://fhir.hl7.org.uk/STU3/CareConnect-NHSNumberVerificationStatus-1"/>
                                <code value="01"/>
                                <display value="Number present and verified"/>
                            </coding>
                        </valueCodeableConcept>
                    </extension>
                    <system value="https://fhir.nhs.uk/Id/nhs-number"/>
                    <value value="135 246 5790"/>
                </identifier>
                <active value="true"/>
                <name>
                    <use value="official"/>
                    <family value="Smith"/>
                    <given value="Richard"/>
                    <prefix value="Mr"/>
                </name>
                <name>
                    <use value="usual"/>
                    <family value="Smith"/>
                    <given value="Richard"/>
                    <prefix value="Mr"/>
                </name>
                <gender value="male"/>
                <birthDate value="1957-01-01"/>
                <address>
                    <use value="home"/>
                    <line value="21, Grove Street, Overtown"/>
                    <city value="Leeds"/>
                    <district value="West Yorkshire"/>
                    <postalCode value="LS21 1PF"/>
                </address>
                <maritalStatus>
                    <coding>
                        <system value="http://hl7.org/fhir/v3/MaritalStatus"/>
                        <code value="M"/>
                        <display value="Married"/>
                    </coding>
                </maritalStatus>
                <contact>
                    <relationship>
                        <coding>
                            <system value="http://hl7.org/fhir/v2/0131"/>
                            <code value="N"/>
                            <display value="Next-of-Kin"/>
                        </coding>
                    </relationship>
                    <name>
                        <use value="usual"/>
                        <family value="Smith"/>
                        <given value="Joy"/>
                        <prefix value="Mrs"/>
                    </name>
                    <telecom>
                        <system value="phone"/>
                        <value value="0712345678"/>
                        <use value="mobile"/>
                    </telecom>
                    <telecom>
                        <system value="email"/>
                        <value value="mrssmith@mymail.com"/>
                    </telecom>
                    <gender value="female"/>
                </contact>
            </Patient>
        </resource>
    </entry>
    <!--Related person Joy Smith-->
    <entry>
        <fullUrl value="urn:uuid:a1b3f01d-a302-4c4a-92b7-82c1c98d5e14"/>
        <resource>
            <RelatedPerson>
                <id value="a1b3f01d-a302-4c4a-92b7-82c1c98d5e14"/>
                <meta>
                    <profile value="https://fhir.nhs.uk/STU3/StructureDefinition/ITK-RelatedPerson-1"/>
                </meta>
                <patient>
                    <reference value="urn:uuid:31686b67-9f20-4644-9a54-193d2f91de57"/>
                </patient>
                <relationship>
                    <coding>
                        <system value="http://hl7.org/fhir/v3/RoleCode"/>
                        <code value="WIFE"/>
                        <display value="wife"/>
                    </coding>
                </relationship>
                <name>
                    <use value="official"/>
                    <family value="Smith"/>
                    <given value="Joy"/>
                </name>
                <telecom>
                    <system value="phone"/>
                    <value value="0712345678"/>
                    <use value="mobile"/>
                </telecom>
                <gender value="female"/>
            </RelatedPerson>
        </resource>
    </entry>
    <!--Practitioner-Example-1-->
    <entry>
        <fullUrl value="urn:uuid:6239b7a7-380d-46ff-a1c5-7abc4e68f8bc"/>
        <resource>
            <Practitioner>
                <id value="6239b7a7-380d-46ff-a1c5-7abc4e68f8bc"/>
                <meta>
                    <profile value="https://fhir.hl7.org.uk/STU3/StructureDefinition/CareConnect-Practitioner-1"/>
                </meta>
                <identifier>
                    <system value="https://fhir.nhs.uk/Id/local-practitioner-identifier"/>
                    <value value="6122477"/>
                </identifier>
                <name>
                    <family value="Rastall"/>
                    <given value="Paul"/>
                    <prefix value="Dr"/>
                </name>
                <telecom>
                    <system value="phone"/>
                    <value value="01136323200"/>
                    <use value="work"/>
                </telecom>
                <address>
                    <line value="Cramer Ward"/>
                    <line value="Leeds General Infirmary"/>
                    <line value="Great George Street"/>
                    <city value="Leeds"/>
                    <postalCode value="LS1 3EX"/>
                </address>
            </Practitioner>
        </resource>
    </entry>
    <!--Practitioner-Example-2-->
    <entry>
        <fullUrl value="urn:uuid:8ece9986-9af0-4882-b0cf-23a96ea7b509"/>
        <resource>
            <Practitioner>
                <id value="8ece9986-9af0-4882-b0cf-23a96ea7b509"/>
                <meta>
                    <profile value="https://fhir.hl7.org.uk/STU3/StructureDefinition/CareConnect-Practitioner-1"/>
                </meta>
                <name>
                    <family value="Jones"/>
                    <given value="Angela"/>
                    <prefix value="Mrs"/>
                </name>
                <telecom>
                    <system value="phone"/>
                    <value value="01136323200"/>
                    <use value="work"/>
                </telecom>
            </Practitioner>
        </resource>
    </entry>
    <!--Practitioner-Example-3-->
    <entry>
        <fullUrl value="urn:uuid:5e414a77-d394-4248-a631-00e45ddb64a0"/>
        <resource>
            <Practitioner>
                <id value="5e414a77-d394-4248-a631-00e45ddb64a0"/>
                <meta>
                    <profile value="https://fhir.hl7.org.uk/STU3/StructureDefinition/CareConnect-Practitioner-1"/>
                </meta>
                <identifier>
                    <system value="https://fhir.nhs.uk/Id/sds-user-id"/>
                    <value value="GP12345600"/>
                </identifier>
                <name>
                    <family value="Lorenzo"/>
                    <given value="John"/>
                    <prefix value="Dr"/>
                </name>
                <telecom>
                    <system value="phone"/>
                    <value value="01634111222"/>
                    <use value="work"/>
                </telecom>
                <telecom>
                    <system value="email"/>
                    <value value="John.Lorenzo@MMC.co.uk"/>
                </telecom>
            </Practitioner>
        </resource>
    </entry>
    <!--Practitioner-Example-4-->
    <entry>
        <fullUrl value="urn:uuid:d25fd1c6-2658-4db7-9af0-86c5f95e8ec9"/>
        <resource>
            <Practitioner>
                <id value="d25fd1c6-2658-4db7-9af0-86c5f95e8ec9"/>
                <meta>
                    <profile value="https://fhir.hl7.org.uk/STU3/StructureDefinition/CareConnect-Practitioner-1"/>
                </meta>
                <name>
                    <family value="Abacus"/>
                    <prefix value="Mr"/>
                </name>
                <telecom>
                    <system value="phone"/>
                    <value value="01136323287"/>
                    <use value="work"/>
                </telecom>
                <address>
                    <line value="Cramer Ward"/>
                    <line value="Leeds General Infirmary"/>
                    <line value="Great George Street"/>
                    <city value="Leeds"/>
                    <postalCode value="LS1 3EX"/>
                </address>
            </Practitioner>
        </resource>
    </entry>
    <!--Practitioner-Example-5-->
    <entry>
        <fullUrl value="urn:uuid:732e11d1-327d-4d32-8259-febd74841d6c"/>
        <resource>
            <Practitioner>
                <id value="732e11d1-327d-4d32-8259-febd74841d6c"/>
                <meta>
                    <profile value="https://fhir.hl7.org.uk/STU3/StructureDefinition/CareConnect-Practitioner-1"/>
                </meta>
                <name>
                    <family value="Smith"/>
                    <given value="Amanda"/>
                    <prefix value="Dr"/>
                </name>
                <telecom>
                    <system value="phone"/>
                    <value value="01136323200"/>
                    <use value="work"/>
                </telecom>
                <address>
                    <line value="Leeds General Infirmary"/>
                    <line value="Great George Street"/>
                    <city value="Leeds"/>
                    <postalCode value="LS1 3EX"/>
                </address>
            </Practitioner>
        </resource>
    </entry>
    <entry>
        <fullUrl value="urn:uuid:7016a1b0-9fa4-4f4f-9eef-0922f3b2aa48"/>
        <resource>
            <PractitionerRole>
                <id value="7016a1b0-9fa4-4f4f-9eef-0922f3b2aa48"/>
                <meta>
                    <profile value="https://fhir.hl7.org.uk/STU3/StructureDefinition/CareConnect-PractitionerRole-1"/>
                </meta>
                <practitioner>
                    <reference value="urn:uuid:6239b7a7-380d-46ff-a1c5-7abc4e68f8bc"/>
                </practitioner>
                <organization>
                    <reference value="urn:uuid:12bba528-a08a-448b-946b-7e8008044025"/>
                </organization>
                <code>
                    <coding>
                        <system value="https://fhir.hl7.org.uk/STU3/CareConnect-SDSJobRoleName-1"/>
                        <code value="R0050"/>
                        <display value="Consultant"/>
                    </coding>
                </code>
            </PractitionerRole>
        </resource>
    </entry>
    <entry>
        <fullUrl value="urn:uuid:a7922b56-d0da-4437-9c45-901b399e8cc5"/>
        <resource>
            <PractitionerRole>
                <id value="a7922b56-d0da-4437-9c45-901b399e8cc5"/>
                <meta>
                    <profile value="https://fhir.hl7.org.uk/STU3/StructureDefinition/CareConnect-PractitionerRole-1"/>
                </meta>
                <practitioner>
                    <reference value="urn:uuid:8ece9986-9af0-4882-b0cf-23a96ea7b509"/>
                </practitioner>
                <organization>
                    <reference value="urn:uuid:acd640c9-5ff9-41ae-9ef3-07a1d5667140"/>
                </organization>
                <code>
                    <coding>
                        <system value="https://fhir.hl7.org.uk/STU3/CareConnect-SDSJobRoleName-1"/>
                        <code value="R0700"/>
                        <display value="Community Nurse"/>
                    </coding>
                </code>
            </PractitionerRole>
        </resource>
    </entry>
    <entry>
        <fullUrl value="urn:uuid:98828e88-b869-439d-8a64-10fd2cd7a4cd"/>
        <resource>
            <PractitionerRole>
                <id value="98828e88-b869-439d-8a64-10fd2cd7a4cd"/>
                <meta>
                    <profile value="https://fhir.hl7.org.uk/STU3/StructureDefinition/CareConnect-PractitionerRole-1"/>
                </meta>
                <practitioner>
                    <reference value="urn:uuid:5e414a77-d394-4248-a631-00e45ddb64a0"/>
                </practitioner>
                <organization>
                    <reference value="urn:uuid:f9f24f89-646b-4a19-a6b1-cabfa3b612e1"/>
                </organization>
                <code>
                    <coding>
                        <system value="https://fhir.hl7.org.uk/STU3/CareConnect-SDSJobRoleName-1"/>
                        <code value="R0260"/>
                        <display value="General Medical Practitioner"/>
                    </coding>
                </code>
            </PractitionerRole>
        </resource>
    </entry>
    <entry>
        <fullUrl value="urn:uuid:51f91436-22f3-4093-bfa9-11a3e84280ee"/>
        <resource>
            <PractitionerRole>
                <id value="51f91436-22f3-4093-bfa9-11a3e84280ee"/>
                <meta>
                    <profile value="https://fhir.hl7.org.uk/STU3/StructureDefinition/CareConnect-PractitionerRole-1"/>
                </meta>
                <practitioner>
                    <reference value="urn:uuid:d25fd1c6-2658-4db7-9af0-86c5f95e8ec9"/>
                </practitioner>
                <organization>
                    <reference value="urn:uuid:12bba528-a08a-448b-946b-7e8008044025"/>
                </organization>
                <code>
                    <coding>
                        <system value="https://fhir.hl7.org.uk/STU3/CareConnect-SDSJobRoleName-1"/>
                        <code value="R0050"/>
                        <display value="Consultant"/>
                    </coding>
                </code>
            </PractitionerRole>
        </resource>
    </entry>
    <entry>
        <fullUrl value="urn:uuid:37914f5e-b233-440d-bc38-1e501e08c3c9"/>
        <resource>
            <PractitionerRole>
                <id value="37914f5e-b233-440d-bc38-1e501e08c3c9"/>
                <meta>
                    <profile value="https://fhir.hl7.org.uk/STU3/StructureDefinition/CareConnect-PractitionerRole-1"/>
                </meta>
                <practitioner>
                    <reference value="urn:uuid:732e11d1-327d-4d32-8259-febd74841d6c"/>
                </practitioner>
                <organization>
                    <reference value="urn:uuid:12bba528-a08a-448b-946b-7e8008044025"/>
                </organization>
                <code>
                    <coding>
                        <system value="https://fhir.hl7.org.uk/STU3/CareConnect-SDSJobRoleName-1"/>
                        <code value="R0110"/>
                        <display value="Specialist Registrar"/>
                    </coding>
                </code>
            </PractitionerRole>
        </resource>
    </entry>
    <!--Organization-Example-1-->
    <entry>
        <fullUrl value="urn:uuid:f9f24f89-646b-4a19-a6b1-cabfa3b612e1"/>
        <resource>
            <Organization>
                <id value="f9f24f89-646b-4a19-a6b1-cabfa3b612e1"/>
                <meta>
                    <profile value="https://fhir.hl7.org.uk/STU3/StructureDefinition/CareConnect-Organization-1"/>
                </meta>
                <identifier>
                    <system value="https://fhir.nhs.uk/Id/ods-organization-code"/>
                    <value value="GP123456"/>
                </identifier>
                <type>
                    <coding>
                        <system value="http://hl7.org/fhir/organization-type"/>
                        <code value="prov"/>
                        <display value="Healthcare Provider"/>
                    </coding>
                </type>
                <name value="MGP Medical Centre"/>
                <telecom>
                    <system value="phone"/>
                    <value value="01634111223"/>
                    <use value="work"/>
                </telecom>
                <telecom>
                    <system value="email"/>
                    <value value="Admin@MMC.co.uk"/>
                </telecom>
                <address>
                    <use value="work"/>
                    <line value="1 MGP House"/>
                    <line value="Overtown"/>
                    <line value="Leeds"/>
                    <line value="LS21 7PA"/>
                </address>
            </Organization>
        </resource>
    </entry>
    <!--Organization-Example-2-->
    <entry>
        <fullUrl value="urn:uuid:12bba528-a08a-448b-946b-7e8008044025"/>
        <resource>
            <Organization>
                <id value="12bba528-a08a-448b-946b-7e8008044025"/>
                <meta>
                    <profile value="https://fhir.hl7.org.uk/STU3/StructureDefinition/CareConnect-Organization-1"/>
                </meta>
                <identifier>
                    <system value="https://fhir.nhs.uk/Id/ods-organization-code"/>
                    <value value="RR8"/>
                </identifier>
                <type>
                    <coding>
                        <system value="http://hl7.org/fhir/organization-type"/>
                        <code value="prov"/>
                        <display value="Healthcare Provider"/>
                    </coding>
                </type>
                <name value="Leeds Teaching Hospitals NHS Trust"/>
                <telecom>
                    <system value="phone"/>
                    <value value="01132433144"/>
                    <use value="work"/>
                </telecom>
                <address>
                    <line value="Leeds Teaching Hospitals NHS Trust"/>
                    <line value="St James's University Hospital"/>
                    <line value="Beckett Street"/>
                    <city value="Leeds"/>
                    <postalCode value="LS9 7TF"/>
                </address>
            </Organization>
        </resource>
    </entry>
    <!--Organization-Example-3-->
    <entry>
        <fullUrl value="urn:uuid:acd640c9-5ff9-41ae-9ef3-07a1d5667140"/>
        <resource>
            <Organization>
                <id value="acd640c9-5ff9-41ae-9ef3-07a1d5667140"/>
                <meta>
                    <profile value="https://fhir.hl7.org.uk/STU3/StructureDefinition/CareConnect-Organization-1"/>
                </meta>
                <identifier>
                    <system value="https://fhir.nhs.uk/Id/ods-organization-code"/>
                    <value value="RY6"/>
                </identifier>
                <type>
                    <coding>
                        <system value="http://hl7.org/fhir/organization-type"/>
                        <code value="prov"/>
                        <display value="Healthcare Provider"/>
                    </coding>
                </type>
                <name value="Leeds Community Healthcare NHS Trust"/>
                <telecom>
                    <system value="phone"/>
                    <value value="01136323200"/>
                    <use value="work"/>
                </telecom>
                <address>
                    <line value="Leeds Community Healthcare NHS Trust"/>
                    <line value="Stockdale House"/>
                    <line value="8, Victoria Road"/>
                    <city value="Leeds"/>
                    <postalCode value="LS6 1PF"/>
                </address>
            </Organization>
        </resource>
    </entry>
    <entry>
        <fullUrl value="urn:uuid:01bb1ccc-577b-4a4a-9fb0-9c8fe9f21fa3"/>
        <resource>
            <Location>
                <id value="01bb1ccc-577b-4a4a-9fb0-9c8fe9f21fa3"/>
                <meta>
                    <profile value="https://fhir.hl7.org.uk/STU3/StructureDefinition/CareConnect-Location-1"/>
                </meta>
                <name value="Cramer Ward"/>
                <type>
                    <coding>
                        <system value="http://hl7.org/fhir/v3/RoleCode"/>
                        <code value="CCU"/>
                        <display value="Coronary care unit"/>
                    </coding>
                </type>
                <physicalType>
                    <coding>
                        <system value="http://hl7.org/fhir/location-physical-type"/>
                        <code value="wa"/>
                        <display value="Ward"/>
                    </coding>
                </physicalType>
                <managingOrganization>
                    <reference value="urn:uuid:12bba528-a08a-448b-946b-7e8008044025"/>
                </managingOrganization>
            </Location>
        </resource>
    </entry>
</Bundle>