<?xml version="1.0" encoding="UTF-8"?>
<!--This xml example is for illustrative purposes only and has not been clinically verified-->
<Bundle xmlns="http://hl7.org/fhir">
	<id value="c06e13aa-8c3b-4e67-999b-6e07e399e741"/>
	<meta>
	 <lastUpdated value="2015-02-17T12:00:00+00:00"/> 
		<profile value="https://fhir.nhs.uk/STU3/StructureDefinition/ITK-Document-Bundle-1"/>
	</meta>
	<identifier>
		<system value="https://tools.ietf.org/html/rfc4122"/>
		<value value="1ff370b6-fc5b-40a1-9721-2a942e301f65"/>
	</identifier>
	<type value="document"/>
	<entry>
		<fullUrl value="urn:uuid:fa2a75a7-4257-422d-92a4-cf537f078e13"/>
		<resource>
			<!--A resource carrying a set of healthcare-related information about the patient-->
			<Composition>
				<id value="fa2a75a7-4257-422d-92a4-cf537f078e13"/>
				<meta>
					<profile value="https://fhir.nhs.uk/STU3/StructureDefinition/CareConnect-ITK-EDIS-Composition-1"/>
				</meta>
				<!-- Extension to carry details of the Correspondence Care Setting Type. -->
				<extension url="https://fhir.nhs.uk/STU3/StructureDefinition/Extension-CareSettingType-1">
					<valueCodeableConcept>
						<coding>
							<system value="http://snomed.info/sct"/>
							<code value="893061000000109"/>
							<display value="Cardiology service"/>
						</coding>
					</valueCodeableConcept>
				</extension>
				<identifier>
					<system value="https://tools.ietf.org/html/rfc4122"/>
					<value value="2b5d459b-df79-4a2b-9b0c-95b2a7ee2ca4"/>
				</identifier>
				<!--The workflow/clinical status of this composition. The status is a marker for the clinical standing of the document.-->
				<status value="final"/>
				<type>
					<!--Discharge Summary document type-->
					<coding>
						<system value="http://snomed.info/sct"/>
						<code value="373942005"/>
						<display value="Discharge summary"/>
					</coding>
				</type>
				<!--Reference to the patient subject of the Composition-->
				<subject>
					<reference value="urn:uuid:31686b67-9f20-4644-9a54-193d2f91de57"/>
				</subject>
				<!--Reference to the clinical encounter or type of care this documentation is associated with.-->
				<encounter>
					<reference value="urn:uuid:4f36b35a-ad18-4ea9-a3fb-c893f709e88a"/>
				</encounter>
				<!--The composition editing time, when the composition was last logically changed by the author.-->
				<date value="2015-02-17T10:00:00+00:00"/>
				<!--Identifies who is responsible for the information in the composition, not necessarily who typed it in-->
				<author>
					<reference value="urn:uuid:6239b7a7-380d-46ff-a1c5-7abc4e68f8bc"/>
				</author>
				<title value="Cardiology Service Discharge Summary"/>
				<!--Identifies the organization responsible for ongoing maintenance of and access to the composition/document information.-->
				<custodian>
					<reference value="urn:uuid:12bba528-a08a-448b-946b-7e8008044025"/>
				</custodian>
				<!--Admission details-->
				<section>
					<!--The label for this particular section. This will be part of the rendered content for the document, and is often used to build a table of contents.-->
					<title value="Admission details"/>
					<!--A SNOMED CT code identifying the kind of content contained within the section-->
					<code>
						<coding>
							<system value="http://snomed.info/sct"/>
							<code value="886781000000108"/>
							<display value="Admission details"/>
						</coding>
					</code>
					<!--A human-readable narrative that contains the attested content of the section-->
					<text>
						<status value="additional"/>
						<div xmlns="http://www.w3.org/1999/xhtml">
							<table width="100%">
								<tbody>
									<tr>
										<th>Reason for admission</th>
										<td>ECG that shows inferior ischaemic changes.</td>
									</tr>
									<tr>
										<th>Admission method</th>
										<td>Accident and emergency or dental casualty department of the Health Care Provider</td>
									</tr>
									<tr>
										<th>Source of admission</th>
										<td>NHS other Hospital Provider - Ward for general Patients or the younger physically disabled or A and E department</td>
									</tr>
									<tr>
										<th>Date/time of admission</th>
										<td>12-Feb-2015 09:00</td>
									</tr>
								</tbody>
							</table>
						</div>
					</text>
					<!--Reference to the encounter resource where information for this section can be found-->
					<entry>
						<reference value="urn:uuid:4f36b35a-ad18-4ea9-a3fb-c893f709e88a"/>
					</entry>
				</section>
				<!--Allergies and adverse reactions-->
				<section>
					<title value="Allergies and adverse reactions"/>
					<code>
						<coding>
							<system value="http://snomed.info/sct"/>
							<code value="886921000000105"/>
							<display value="Allergies and adverse reactions"/>
						</coding>
					</code>
					<text>
						<status value="additional"/>
						<div xmlns="http://www.w3.org/1999/xhtml">
							<table width="100%">
								<tbody>
									<tr>
										<th>Causative agent</th>
										<td>Penicillin -class of antibiotic-</td>
									</tr>
									<tr>
										<th>Reaction details</th>
										<td>Description of reaction: Rash. No swelling.</td>
									</tr>
									<tr>
										<th>Date recorded</th>
										<td>12 January 2012</td>
									</tr>
								</tbody>
							</table>
						</div>
					</text>
					<!--Reference to Allergies List as the source of information for this section-->
					<entry>
						<reference value="urn:uuid:95e8f8d0-dfc3-4c72-a9dc-7ba1ccd1fab4"/>
					</entry>
				</section>
				<!--Assessment scales-->
				<section>
					<title value="Assessment scales"/>
					<code>
						<coding>
							<system value="http://snomed.info/sct"/>
							<code value="887141000000103"/>
							<display value="Assessment scales"/>
						</coding>
					</code>
					<text>
						<status value="additional"/>
						<div xmlns="http://www.w3.org/1999/xhtml">
							<table width="100%">
								<tbody>
									<tr>
										<th>Assessment scale</th>
										<td>TIMI assessment</td>
									</tr>
								</tbody>
							</table>
						</div>
					</text>
				</section>
				<!--Clinical summary-->
				<section>
					<title value="Clinical summary"/>
					<code>
						<coding>
							<system value="http://snomed.info/sct"/>
							<code value="887181000000106"/>
							<display value="Clinical summary"/>
						</coding>
					</code>
					<text>
						<status value="additional"/>
						<div xmlns="http://www.w3.org/1999/xhtml">
							<table width="100%">
								<tbody>
									<tr>
										<th>Clinical Summary</th>
									</tr>
									<tr>
										<td>
											<p>60 year old man complaining of chest pain lasting around 2 hours.</p>
											<p>Examination unremarkable.</p>
											<p>Inferior ischaemic changes on ECGs.</p>
											<p>Coronary angiogram demonstrated diseased RCA, drug eluting stent successfully placed.</p>
											<p>Appropriate secondary prevention medications prescribed for follow up with Cardiac Rehabilitation team.</p>
										</td>
									</tr>
								</tbody>
							</table>
						</div>
					</text>
				</section>
				<!--Diagnoses-->
				<section>
					<title value="Diagnoses"/>
					<code>
						<coding>
							<system value="http://snomed.info/sct"/>
							<code value="887161000000102"/>
							<display value="Diagnoses"/>
						</coding>
					</code>
					<text>
						<status value="additional"/>
						<div xmlns="http://www.w3.org/1999/xhtml">
							<table width="100%">
								<tbody>
									<tr>
										<th>Diagnosis name</th>
										<td>Chest pain</td>
									</tr>
									<tr>
										<th>Comment</th>
										<td>Patient arrived in Accident and Emergency complaining of chest pain and admitted to ward for further tests.</td>
									</tr>
									<tr>
										<th>Diagnosis name</th>
										<td>Coronary arteriosclerosis</td>
									</tr>
									<tr>
										<th>Comment</th>
										<td>The coronary angiogram indicates a diseased RCA.</td>
									</tr>
									<tr>
										<th>Diagnosis name</th>
										<td>ECG: inferior ischaemia</td>
									</tr>
									<tr>
										<th>Comment</th>
										<td>ECG shows inferior ischaemic changes.</td>
									</tr>
								</tbody>
							</table>
						</div>
					</text>
					<entry>
						<reference value="urn:uuid:caf5f17d-e73d-4aaa-a406-dab1717da0c4"/>
					</entry>
				</section>
				<!--Discharge details-->
				<section>
					<title value="Discharge details"/>
					<code>
						<coding>
							<system value="http://snomed.info/sct"/>
							<code value="886811000000106"/>
							<display value="Discharge details"/>
						</coding>
					</code>
					<text>
						<status value="generated"/>
						<div xmlns="http://www.w3.org/1999/xhtml">
							<table width="100%">
								<tbody>
									<tr>
										<th>Discharging consultant</th>
										<td>
											<p>Prefix: Dr</p>
											<p>Given Name: Paul</p>
											<p>Family Name: Rastall</p>
											<p>Identifier: 6122477</p>
										</td>
									</tr>
									<tr>
										<th>Discharging specialty/department</th>
										<td>Cardiology</td>
									</tr>
									<tr>
										<th>Discharge location</th>
										<td>
											<p>Name: Cramer ward</p>
											<p>Identifier: RR8CRAM</p>
										</td>
									</tr>
									<tr>
										<th>Date/time of discharge</th>
										<td>16-Feb-2015 15:00</td>
									</tr>
									<tr>
										<th>Discharge method</th>
										<td>Patient discharged on clinical advice or with clinical consent</td>
									</tr>
									<tr>
										<th>Discharge destination</th>
										<td>Discharge type: Usual place of residence unless listed below, for example, a private dwelling whether owner occupied or owned by Local Authority, housing association or other landlord. This includes wardened accommodation but not residential accommodation where health care is provided. It also includes Patients with no fixed abode.</td>
									</tr>
								</tbody>
							</table>
						</div>
					</text>
					<!--Reference to the Encounter entry as a source of information for this section-->
					<entry>
						<reference value="urn:uuid:4f36b35a-ad18-4ea9-a3fb-c893f709e88a"/>
					</entry>
					<!--Reference to the Practitioner entry as a source of information for this section-->
					<entry>
						<reference value="urn:uuid:6239b7a7-380d-46ff-a1c5-7abc4e68f8bc"/>
					</entry>
				</section>
				<!--Distribution list-->
				<section>
					<title value="Distribution list"/>
					<code>
						<coding>
							<system value="http://snomed.info/sct"/>
							<code value="887261000000109"/>
							<display value="Distribution list"/>
						</coding>
					</code>
					<text>
						<status value="generated"/>
						<div xmlns="http://www.w3.org/1999/xhtml">
							<table width="100%">
								<tbody>
									<tr>
										<th>Name</th>
										<td>
											<p>Prefix: Mrs</p>
											<p>Given Name: Angela</p>
											<p>Family Name: Jones</p>
											<p>Identifier: 033345750517</p>
										</td>
									</tr>
									<tr>
										<th>Role</th>
										<td>Community Nurse</td>
									</tr>
									<tr>
										<th>Organisation</th>
										<td>Leeds Community Healthcare NHS Trust<p>Identifier: RY6</p>
										</td>
									</tr>
								</tbody>
							</table>
							<table width="100%">
								<tbody>
									<tr>
										<th>Name</th>
										<td>
											<p>Prefix: Dr</p>
											<p>Given Name: John</p>
											<p>Family Name: Lorenzo</p>
											<p>Identifier: 6122472</p>
										</td>
									</tr>
									<tr>
										<th>Role</th>
										<td>General Medical Practitioner</td>
									</tr>
									<tr>
										<th>Organisation</th>
										<td>MGP Medical Centre<p>Identifier: GP123456</p>
										</td>
									</tr>
								</tbody>
							</table>
						</div>
					</text>
					<!--Reference to the practitioner entries as recipients of information-->
					<entry>
						<reference value="urn:uuid:8ece9986-9af0-4882-b0cf-23a96ea7b509"/>
					</entry>
					<entry>
						<reference value="urn:uuid:5e414a77-d394-4248-a631-00e45ddb64a0"/>
					</entry>
				</section>
				<!-- GP Practice-->
				<section>
					<title value="GP practice"/>
					<code>
						<coding>
							<system value="http://snomed.info/sct"/>
							<code value="886711000000101"/>
							<display value="GP practice"/>
						</coding>
					</code>
					<text>
						<status value="generated"/>
						<div xmlns="http://www.w3.org/1999/xhtml">
							<table width="100%">
								<tbody>
									<tr>
										<th>GP name</th>
										<td>
											<p>Prefix: Dr</p>
											<p>Given Name: John</p>
											<p>Family Name: Lorenzo</p>
											<p>Identifier: 6122472</p>
										</td>
									</tr>
									<tr>
										<th>GP practice details</th>
										<td>
											<p>Name: MGP Medical Centre</p>
											<p>Address:</p>
											<p>Address Line: 1 MGP House, Overtown</p>
											<p>City: Leeds</p>
											<p>Post Code: LS21 7PA</p>
										</td>
									</tr>
									<tr>
										<th>GP practice identifier</th>
										<td>GP123456</td>
									</tr>
								</tbody>
							</table>
						</div>
					</text>
					<!--Reference to the Organisation entry as the source of information for this section-->
					<entry>
						<reference value="urn:uuid:f9f24f89-646b-4a19-a6b1-cabfa3b612e1"/>
					</entry>
				</section>
				<!--Individual requirements-->
				<section>
					<title value="Individual requirements"/>
					<code>
						<coding>
							<system value="http://snomed.info/sct"/>
							<code value="1052901000000109"/>
							<display value="Individual requirement"/>
						</coding>
					</code>
					<text>
						<status value="additional"/>
						<div xmlns="http://www.w3.org/1999/xhtml">
							<table width="100%">
								<tbody>
									<tr>
										<th>Individual requirements</th>
										<td>Hospital needs to arrange for transportation to the patient's home.</td>
									</tr>
								</tbody>
							</table>
						</div>
					</text>
				</section>
				<!--Information and advice given-->
				<section>
					<title value="Information and advice given"/>
					<code>
						<coding>
							<system value="http://snomed.info/sct"/>
							<code value="1052951000000105"/>
							<display value="Information and advice given"/>
						</coding>
					</code>
					<text>
						<status value="additional"/>
						<div xmlns="http://www.w3.org/1999/xhtml">
							<table width="100%">
								<tbody>
									<tr>
										<th>Information and advice given</th>
										<td>
											<p>Patient seen by Cardiac Rehab and information given regarding the diagnosis and possible life style changes when he is discharged.</p>
											<p>Richard is concerned about whether he can drive and asks about this as he is a self employed electrician.</p>
											<p> Dr Paul Rastall advised him that he should not to drive for at least a week, but reassured him that he should be able to drive once recovered and said he will arrange for a community follow-up.</p>
										</td>
									</tr>
								</tbody>
							</table>
						</div>
					</text>
				</section>
				<!--Investigation results-->
				<section>
					<title value="Investigation results"/>
					<code>
						<coding>
							<system value="http://snomed.info/sct"/>
							<code value="1082101000000102"/>
							<display value="Investigation results"/>
						</coding>
					</code>
					<text>
						<status value="additional"/>
						<div xmlns="http://www.w3.org/1999/xhtml">
							<table>
								<tbody>
									<tr>
										<th>Investigation result</th>
									</tr>
									<tr>
										<td>
											<pre>
Full Blood Count      
      
Test						Value			Units			Reference Range
White Cell Count				11.1			x10*9/L			3.5 - 10.0
Red Cell Count					5.0			x10*12/L		4.25 - 5.75 
Haemoglobin					150			g/L			13.0 - 17.0
Haematocrit					0.230						0.400 - 0.500
Mean Cell Volume				90			fL			84 - 98
Mean Cell Hb					33.0			pg			27.5 - 32.0
Mean Cell Hb Con				34.0			pg			31.0 - 35.0
RDW						12.0			%			&lt; 14.5
Platelet Count					300			x10*9/L			150 - 400

Machine Differential      
      
Test                  				Value			Units        		Reference Range
Neutrophils					7.0			x10*9/L			1.7 - 7.5
Lymphocytes					3.5			x10*9/L			1.0 - 3.5   
Monocytes					0.3			x10*9/L			&lt; 0.6  
Eosinophils					0.4			x10*9/L			&lt; 0.4  
Basophils					0.1			x10*9/L			&lt; 0.1 
LUCs						0.2			x10*9/L			&lt; 0.4 
      </pre>
										</td>
									</tr>
								</tbody>
							</table>
						</div>
					</text>
				</section>
				<!--Medications-->
				<section>
					<title value="Medications and medical devices"/>
					<code>
						<coding>
							<system value="http://snomed.info/sct"/>
							<code value="933361000000108"/>
							<display value="Medications and medical devices"/>
						</coding>
					</code>
					<text>
						<status value="additional"/>
						<div xmlns="http://www.w3.org/1999/xhtml">
							<table width="100%">
								<tbody>
									<tr>
										<th>Medication item</th>
										<td>Medication name: Ramipril 2.5mg tablets</td>
										<td>Form: Tablets</td>
										<td>Route: Oral</td>
										<td>Dose directions description: One 2.5mg tablet once a day.</td>
									</tr>
									<tr>
										<th>Medication change</th>
										<td colspan="4">Status: Continued</td>
									</tr>
								</tbody>
							</table>
							<table width="100%">
								<tbody>
									<tr>
										<th>Medication item</th>
										<td>Medication name: Aspirin 75mg gastro-resistant tablets</td>
										<td>Form: Tablets</td>
										<td>Route: Oral</td>
										<td>Dose directions description: Take one 75mg tablet once a day.</td>
									</tr>
									<tr>
										<th>Medication change</th>
										<td colspan="4">Status: Continued</td>
									</tr>
								</tbody>
							</table>
							<table width="100%">
								<tbody>
									<tr>
										<th>Medication item</th>
										<td>Medication name: Clopidogrel 75mg tablets</td>
										<td>Form: Tablets</td>
										<td>Route: Oral</td>
										<td>Dose directions description: Take one 75mg tablet daily for one year then stop.</td>
									</tr>
									<tr>
										<th>Medication change</th>
										<td colspan="4">Status: Added</td>
									</tr>
								</tbody>
							</table>
							<table width="100%">
								<tbody>
									<tr>
										<th>Medication item</th>
										<td>Medication name: Simvastatin 40mg tablets</td>
										<td>Form: Tablets</td>
										<td>Route: Oral</td>
										<td>Dose directions description: Take one 40mg tablet once a day.</td>
									</tr>
									<tr>
										<th>Medication change</th>
										<td colspan="4">Status: Continued</td>
									</tr>
								</tbody>
							</table>
							<table width="100%">
								<tbody>
									<tr>
										<th>Medication item</th>
										<td>Medication name: Bisoprolol 5mg tablets</td>
										<td>Form: Tablets</td>
										<td>Route: Oral</td>
										<td>Dose directions description: Take one 5mg tablet daily.</td>
									</tr>
									<tr>
										<th>Course details</th>
										<td colspan="4">Comment/recommendation: Uptitrate according to BP and HR</td>
									</tr>
									<tr>
										<th>Medication change</th>
										<td colspan="4">Status: Continued</td>
									</tr>
								</tbody>
							</table>
						</div>
					</text>
					<!--Reference to medication list-->
					<entry>
						<reference value="urn:uuid:d0710501-2e32-4cbd-bd63-a14354bbcd0f"/>
					</entry>
				</section>
				<!-- Patient and carer concerns, expectations and wishes-->
				<section>
					<title value="Patient and carer concerns, expectations and wishes"/>
					<code>
						<coding>
							<system value="http://snomed.info/sct"/>
							<code value="1052941000000107"/>
							<display value="Patient and carer concerns, expectations and wishes"/>
						</coding>
					</code>
					<text>
						<status value="additional"/>
						<div xmlns="http://www.w3.org/1999/xhtml">
							<table width="100%">
								<tbody>
									<tr>
										<th>Person and carer concerns, expectations and wishes</th>
										<td>The carer is concerned about the possibility of the patient suffering from a heart attack, 
          bearing a similarity to the illness of the mother of the patient. 
          The patient is worried about the impact of their illness on their ability to work and drive.</td>
									</tr>
								</tbody>
							</table>
						</div>
					</text>
				</section>
				<!-- Patient demographics-->
				<section>
					<title value="Patient demographics"/>
					<code>
						<coding>
							<system value="http://snomed.info/sct"/>
							<code value="886731000000109"/>
							<display value="Patient demographics"/>
						</coding>
					</code>
					<text>
						<status value="additional"/>
						<div xmlns="http://www.w3.org/1999/xhtml">
							<table width="100%">
								<tbody>
									<tr>
										<th>Patient name</th>
										<td>
											<p>Prefix: Mr</p>
											<p>Given Name: Richard</p>
											<p>Family Name: Smith</p>
										</td>
									</tr>
									<tr>
										<th>Date of birth</th>
										<td>1 January 1957</td>
									</tr>
									<tr>
										<th>Gender</th>
										<td>Male</td>
									</tr>
									<tr>
										<th>NHS number</th>
										<td>1352465790</td>
									</tr>
									<tr>
										<th>Patient address</th>
										<td>
											<p>Address Line: 21, Grove Street, Overtown</p>
											<p>City: Leeds</p>
											<p>Post Code: LS21 1PF</p>
										</td>
									</tr>
									<tr>
										<th>Relevant contacts</th>
										<td>Name: Joy Smith <p>Relationship: Next of kin</p>
											<p>Contact details: Tel. 0712345678 Email. mrssmith@mymail.com</p>
										</td>
									</tr>
								</tbody>
							</table>
						</div>
					</text>
					<!--reference to further information carried in the patient resource-->
					<entry>
						<reference value="urn:uuid:31686b67-9f20-4644-9a54-193d2f91de57"/>
					</entry>
				</section>
				<!--Person completing record-->
				<section>
					<title value="Person completing record"/>
					<code>
						<coding>
							<system value="http://snomed.info/sct"/>
							<code value="887231000000104"/>
							<display value="Person completing record"/>
						</coding>
					</code>
					<text>
						<status value="additional"/>
						<div xmlns="http://www.w3.org/1999/xhtml">
							<table width="100%">
								<tbody>
									<tr>
										<th>Name</th>
										<td>
											<p>Prefix: Dr</p>
											<p>Given Name: Paul</p>
											<p>Family Name: Rastall</p>
											<p>Identifier: 6122477</p>
										</td>
									</tr>
									<tr>
										<th>Role</th>
										<td>Consultant</td>
									</tr>
									<tr>
										<th>Specialty</th>
										<td>Cardiology</td>
									</tr>
									<tr>
										<th>Professional identifier</th>
										<td>GMC: 6122477</td>
									</tr>
									<tr>
										<th>Date and time completed</th>
										<td>17 Feb 2015 10:00</td>
									</tr>
									<tr>
										<th>Contact details</th>
										<td>Phone: 0113 6323200 (Work)</td>
									</tr>
									<tr>
										<th>Organisation</th>
										<td>
											<p>ODS code: RR8</p>
											<p>Name: Leeds Teaching Hospitals NHS Trust,</p>
											<p>Address Line: St James's University Hospital, Beckett Street</p>
											<p>City: Leeds</p>
											<p>Post Code: LS9 7TF</p>
										</td>
									</tr>
								</tbody>
							</table>
						</div>
					</text>
					<!--reference to practitioner and organisation entries-->
					<entry>
						<reference value="urn:uuid:6239b7a7-380d-46ff-a1c5-7abc4e68f8bc"/>
					</entry>
					<entry>
						<reference value="urn:uuid:12bba528-a08a-448b-946b-7e8008044025"/>
					</entry>
				</section>
				<!--Plan and requested actions-->
				<section>
					<title value="Plan and requested actions"/>
					<code>
						<coding>
							<system value="http://snomed.info/sct"/>
							<code value="887201000000105"/>
							<display value="Plan and requested actions"/>
						</coding>
					</code>
					<text>
						<status value="additional"/>
						<div xmlns="http://www.w3.org/1999/xhtml">
							<table width="100%">
								<tbody>
									<tr>
										<th>Actions for healthcare professionals</th>
										<td>GP please continue secondary preventative medication. <p>Status: Requested</p>
											<p>Doses will be uptitrated by Cardiac Rehab team.</p>
											<p>Status: Requested</p>
										</td>
									</tr>
									<tr>
										<th>Actions for patient or their carer</th>
										<td>Patient to attend community follow up after discharge.</td>
									</tr>
									<tr>
										<th>Agreed with patient or legitimate patient representative</th>
										<td>Patient agreed to avoid driving for one week on discharge.</td>
									</tr>
								</tbody>
							</table>
						</div>
					</text>
				</section>
				<!--Procedures-->
				<section>
					<title value="Procedures"/>
					<code>
						<coding>
							<system value="http://snomed.info/sct"/>
							<code value="887171000000109"/>
							<display value="Procedures"/>
						</coding>
					</code>
					<text>
						<status value="additional"/>
						<div xmlns="http://www.w3.org/1999/xhtml">
							<table width="100%">
								<tbody>
									<tr>
										<th>Procedure name</th>
										<td>Percutaneous coronary intervention<p>Anatomical site: Right coronary artery structure</p>
											<p>Comment: Patient successfully underwent angioplasty procedure to place a drug eluting stent.</p>
										</td>
									</tr>
									<tr>
										<th>Procedure name</th>
										<td>Electrocardiographic monitoring<p>Comment: ECGs showed inferior ischaemic changes and diseased RCA.</p>
										</td>
									</tr>
									<tr>
										<th>Procedure name</th>
										<td>Taking patient vital signs assessment</td>
									</tr>
								</tbody>
							</table>
						</div>
					</text>
					<!--reference to further information carried in the procedure list-->
					<entry>
						<reference value="urn:uuid:1e04ce96-6e52-4f82-bc26-93c89c5836a1"/>
					</entry>
				</section>
				<!--Referrer details-->
				<section>
					<title value="Referrer details"/>
					<code>
						<coding>
							<system value="http://snomed.info/sct"/>
							<code value="1052891000000108"/>
							<display value="Referrer details"/>
						</coding>
					</code>
					<text>
						<status value="additional"/>
						<div xmlns="http://www.w3.org/1999/xhtml">
							<table width="100%">
								<tbody>
									<tr>
										<th>Referrer details</th>
										<td>Dr. Amanda Smith (Specialist Registrar)<p>Leeds General Infirmary Accident and Emergency Department,</p>
											<p>Clarendon Wing, Leeds General Infirmary,</p>
											<p>Great George Street,</p>
											<p>Leeds LS1 3EX</p>
										</td>
									</tr>
								</tbody>
							</table>
						</div>
					</text>
				</section>
				<!--Social context -->
				<section>
					<title value="Social context"/>
					<code>
						<coding>
							<system value="http://snomed.info/sct"/>
							<code value="887051000000101"/>
							<display value="Social context"/>
						</coding>
					</code>
					<text>
						<status value="additional"/>
						<div xmlns="http://www.w3.org/1999/xhtml">
							<table width="100%">
								<tbody>
									<tr>
										<th>Household composition</th>
										<td>Lives with wife</td>
									</tr>
									<tr>
										<th>Occupational history</th>
										<td>Self employed electrician</td>
									</tr>
								</tbody>
							</table>
						</div>
					</text>
				</section>
			</Composition>
		</resource>
	</entry>
	<!--Encounter-->
	<entry>
		<fullUrl value="urn:uuid:4f36b35a-ad18-4ea9-a3fb-c893f709e88a"/>
		<resource>
			<!--Encounter resource providing context for the discharge-->
			<Encounter>
				<id value="4f36b35a-ad18-4ea9-a3fb-c893f709e88a"/>
				<meta>
					<profile value="https://fhir.nhs.uk/STU3/StructureDefinition/CareConnect-ITK-Encounter-1"/>
				</meta>
				<extension url="https://fhir.hl7.org.uk/STU3/StructureDefinition/Extension-CareConnect-AdmissionMethod-1">
					<valueCodeableConcept>
						<coding>
							<system value="https://fhir.hl7.org.uk/STU3/CodeSystem/CareConnect-AdmissionMethod-1"/>
							<code value="21"/>
							<display value="Accident and emergency or dental casualty department of the Health Care Provider"/>
						</coding>
					</valueCodeableConcept>
				</extension>
				<extension url="https://fhir.hl7.org.uk/STU3/StructureDefinition/Extension-CareConnect-DischargeMethod-1">
					<valueCodeableConcept>
						<coding>
							<system value="https://fhir.hl7.org.uk/STU3/CodeSystem/CareConnect-DischargeMethod-1"/>
							<code value="1"/>
							<display value="Patient discharged on clinical advice or with clinical consent"/>
						</coding>
					</valueCodeableConcept>
				</extension>
				<identifier>
					<system value="https://tools.ietf.org/html/rfc4122"/>
					<value value="13c73015-d8fa-4844-8d68-4f856883eca8"/>
				</identifier>
				<status value="finished"/>
    <class>
     <system value="http://hl7.org/fhir/v3-ActEncounterCode"/>
     <code value="IMP"/>
     <display value="inpatient encounter"/>
    </class>
    <!--Specific type of encounter-->
    <type>
     <coding>
      <system value="http://snomed.info/sct"/>
      <code value="24882007"/>
      <display value="Medical consultation on hospital inpatient"/>
     </coding>
    </type>
				<!--Reference to the patient as the subject of the Encounter-->
				<subject>
					<reference value="urn:uuid:31686b67-9f20-4644-9a54-193d2f91de57"/>
				</subject>
				<period>
					<start value="2015-02-12T09:00:00+00:00"/>
					<end value="2015-02-16T15:00:00+00:00"/>
				</period>
				<hospitalization>
					<!--From where patient was admitted-->
					<admitSource>
						<coding>
							<system value="https://fhir.hl7.org.uk/STU3/CodeSystem/CareConnect-SourceOfAdmission-1"/>
							<code value="51"/>
							<display value="NHS other Hospital Provider - Ward for general Patients or the younger physically disabled or A and E department"/>
						</coding>
					</admitSource>
					<!--	Category or kind of location after discharge-->
					<dischargeDisposition>
						<coding>
							<system value="https://fhir.hl7.org.uk/STU3/CodeSystem/CareConnect-DischargeDestination-1"/>
							<code value="19"/>
							<display value="Usual place of residence unless listed below, for example, a private dwelling whether owner occupied or owned by Local Authority, housing association or other landlord. This includes wardened accommodation but not residential accommodation where health care is provided. It also includes Patients with no fixed abode."/>
						</coding>
					</dischargeDisposition>
				</hospitalization>
				<!--List of locations where the patient has been-->
				<location>
					<!-- Discharge location-->
					<location>
						<reference value="urn:uuid:01bb1ccc-577b-4a4a-9fb0-9c8fe9f21fa3"/>
					</location>
					<period>
						<end value="2015-02-16T15:00:00+00:00"/>
					</period>
				</location>
			</Encounter>
		</resource>
	</entry>
	<!--Medication list-->
	<entry>
		<fullUrl value="urn:uuid:d0710501-2e32-4cbd-bd63-a14354bbcd0f"/>
		<resource>
			<List>
				<id value="d0710501-2e32-4cbd-bd63-a14354bbcd0f"/>
				<meta>
					<profile value="https://fhir.nhs.uk/STU3/StructureDefinition/CareConnect-ITK-Medication-List-1"/>
				</meta>
				<identifier>
					<system value="https://tools.ietf.org/html/rfc4122"/>
					<value value="cb8e31b2-15d4-4fe6-a690-13934348fbf1"/>
				</identifier>
				<status value="current"/>
				<mode value="snapshot"/>
				<code>
					<coding>
						<system value="http://snomed.info/sct"/>
						<code value="933361000000108"/>
						<display value="Medications and medical devices"/>
					</coding>
				</code>
				<subject>
					<reference value="urn:uuid:31686b67-9f20-4644-9a54-193d2f91de57"/>
				</subject>
				<entry>
					<flag>
						<coding>
							<system value="https://fhir.nhs.uk/STU3/CodeSystem/ITK-PatientMedicationChangeType-1"/>
							<code value="9"/>
							<display value="Active"/>
						</coding>
					</flag>
					<item>
						<reference value="urn:uuid:a94d6293-cfc0-45a3-b7a8-ae7040f990f1"/>
					</item>
				</entry>
				<entry>
					<flag>
						<coding>
							<system value="https://fhir.nhs.uk/STU3/CodeSystem/ITK-PatientMedicationChangeType-1"/>
							<code value="9"/>
							<display value="Active"/>
						</coding>
					</flag>
					<item>
						<reference value="urn:uuid:934ac400-f197-4bbc-a307-5ce8d271d4dd"/>
					</item>
				</entry>
				<entry>
					<flag>
						<coding>
							<system value="https://fhir.nhs.uk/STU3/CodeSystem/ITK-PatientMedicationChangeType-1"/>
							<code value="4"/>
							<display value="Addition"/>
						</coding>
					</flag>
					<item>
						<reference value="urn:uuid:1092404d-00c9-4f9e-b7df-9abbc8762c91"/>
					</item>
				</entry>
				<entry>
					<flag>
						<coding>
							<system value="https://fhir.nhs.uk/STU3/CodeSystem/ITK-PatientMedicationChangeType-1"/>
							<code value="9"/>
							<display value="Active"/>
						</coding>
					</flag>
					<item>
						<reference value="urn:uuid:539258fb-08de-44a4-8683-f72b235c43af"/>
					</item>
				</entry>
				<entry>
					<flag>
						<coding>
							<system value="https://fhir.nhs.uk/STU3/CodeSystem/ITK-PatientMedicationChangeType-1"/>
							<code value="9"/>
							<display value="Active"/>
						</coding>
					</flag>
					<item>
						<reference value="urn:uuid:11baa8fd-b670-47d1-ab3a-183488af5c6e"/>
					</item>
				</entry>
			</List>
		</resource>
	</entry>
	<!--Medication statement example 1-->
	<entry>
		<fullUrl value="urn:uuid:a94d6293-cfc0-45a3-b7a8-ae7040f990f1"/>
		<resource>
			<MedicationStatement>
				<id value="a94d6293-cfc0-45a3-b7a8-ae7040f990f1"/>
				<meta>
					<profile value="https://fhir.nhs.uk/STU3/StructureDefinition/CareConnect-ITK-MedicationStatement-1"/>
				</meta>
				<extension url="https://fhir.hl7.org.uk/STU3/StructureDefinition/Extension-CareConnect-MedicationChangeSummary-1">
					<extension url="status">
						<valueCode value="Continued"/>
					</extension>
				</extension>
				<status value="active"/>
				<medicationReference>
					<reference value="urn:uuid:ebc37408-dc6c-437a-a09f-f7ee88927e3f"/>
				</medicationReference>
				<subject>
					<reference value="urn:uuid:31686b67-9f20-4644-9a54-193d2f91de57"/>
				</subject>
				<taken value="y"/>
				<dosage>
					<text value="One 2.5mg tablet once a day."/>
					<route>
						<coding>
							<system value="http://snomed.info/sct"/>
							<code value="26643006"/>
							<display value="Oral"/>
						</coding>
					</route>
				</dosage>
			</MedicationStatement>
		</resource>
	</entry>
	<!--Medication Statement Example 2-->
	<entry>
		<fullUrl value="urn:uuid:934ac400-f197-4bbc-a307-5ce8d271d4dd"/>
		<resource>
			<MedicationStatement>
				<id value="934ac400-f197-4bbc-a307-5ce8d271d4dd"/>
				<meta>
					<profile value="https://fhir.nhs.uk/STU3/StructureDefinition/CareConnect-ITK-MedicationStatement-1"/>
				</meta>
				<extension url="https://fhir.hl7.org.uk/STU3/StructureDefinition/Extension-CareConnect-MedicationChangeSummary-1">
					<extension url="status">
						<valueCode value="Continued"/>
					</extension>
				</extension>
				<status value="active"/>
				<medicationReference>
					<reference value="urn:uuid:3ce528f4-4b5f-4493-9d8a-4681f9480090"/>
				</medicationReference>
				<subject>
					<reference value="urn:uuid:31686b67-9f20-4644-9a54-193d2f91de57"/>
				</subject>
				<taken value="y"/>
				<dosage>
					<text value="Take one 75mg tablet once a day."/>
					<route>
						<coding>
							<system value="http://snomed.info/sct"/>
							<code value="26643006"/>
							<display value="Oral"/>
						</coding>
					</route>
				</dosage>
			</MedicationStatement>
		</resource>
	</entry>
	<!--Medication Statement Example 3-->
	<entry>
		<fullUrl value="urn:uuid:1092404d-00c9-4f9e-b7df-9abbc8762c91"/>
		<resource>
			<MedicationStatement>
				<id value="1092404d-00c9-4f9e-b7df-9abbc8762c91"/>
				<meta>
					<profile value="https://fhir.nhs.uk/STU3/StructureDefinition/CareConnect-ITK-MedicationStatement-1"/>
				</meta>
				<extension url="https://fhir.hl7.org.uk/STU3/StructureDefinition/Extension-CareConnect-MedicationChangeSummary-1">
					<extension url="status">
						<valueCode value="Added"/>
					</extension>
				</extension>
				<status value="active"/>
				<medicationReference>
					<reference value="urn:uuid:00988800-c1e6-43b1-96c5-f0dc2ac4fa1d"/>
				</medicationReference>
				<subject>
					<reference value="urn:uuid:31686b67-9f20-4644-9a54-193d2f91de57"/>
				</subject>
				<taken value="y"/>
				<dosage>
					<text value="Take one 75mg tablet daily for one year then stop."/>
					<route>
						<coding>
							<system value="http://snomed.info/sct"/>
							<code value="26643006"/>
							<display value="Oral"/>
						</coding>
					</route>
				</dosage>
			</MedicationStatement>
		</resource>
	</entry>
	<!--Medication Statement Example 4-->
	<entry>
		<fullUrl value="urn:uuid:539258fb-08de-44a4-8683-f72b235c43af"/>
		<resource>
			<MedicationStatement>
				<id value="539258fb-08de-44a4-8683-f72b235c43af"/>
				<meta>
					<profile value="https://fhir.nhs.uk/STU3/StructureDefinition/CareConnect-ITK-MedicationStatement-1"/>
				</meta>
				<extension url="https://fhir.hl7.org.uk/STU3/StructureDefinition/Extension-CareConnect-MedicationChangeSummary-1">
					<extension url="status">
						<valueCode value="Continued"/>
					</extension>
				</extension>
				<status value="active"/>
				<medicationReference>
					<reference value="urn:uuid:10fc330a-e94f-4a49-94ad-84edf525a727"/>
				</medicationReference>
				<subject>
					<reference value="urn:uuid:31686b67-9f20-4644-9a54-193d2f91de57"/>
				</subject>
				<taken value="y"/>
				<dosage>
					<text value="Take one 40mg tablet once a day."/>
					<route>
						<coding>
							<system value="http://snomed.info/sct"/>
							<code value="26643006"/>
							<display value="Oral"/>
						</coding>
					</route>
				</dosage>
			</MedicationStatement>
		</resource>
	</entry>
	<!--Medication Statement Example 5-->
	<entry>
		<fullUrl value="urn:uuid:11baa8fd-b670-47d1-ab3a-183488af5c6e"/>
		<resource>
			<MedicationStatement>
				<id value="11baa8fd-b670-47d1-ab3a-183488af5c6e"/>
				<meta>
					<profile value="https://fhir.nhs.uk/STU3/StructureDefinition/CareConnect-ITK-MedicationStatement-1"/>
				</meta>
				<extension url="https://fhir.hl7.org.uk/STU3/StructureDefinition/Extension-CareConnect-MedicationChangeSummary-1">
					<extension url="status">
						<valueCode value="Continued"/>
					</extension>
				</extension>
				<status value="active"/>
				<medicationReference>
					<reference value="urn:uuid:403dcbfb-aadb-4ce5-b566-6ec52c9f9855"/>
				</medicationReference>
				<subject>
					<reference value="urn:uuid:31686b67-9f20-4644-9a54-193d2f91de57"/>
				</subject>
				<taken value="y"/>
				<dosage>
					<text value="Take one 5mg tablet daily."/>
					<route>
						<coding>
							<system value="http://snomed.info/sct"/>
							<code value="26643006"/>
							<display value="Oral"/>
						</coding>
					</route>
				</dosage>
			</MedicationStatement>
		</resource>
	</entry>
	<!--Medication Example 1-->
	<entry>
		<fullUrl value="urn:uuid:ebc37408-dc6c-437a-a09f-f7ee88927e3f"/>
		<resource>
			<Medication>
				<id value="ebc37408-dc6c-437a-a09f-f7ee88927e3f"/>
				<meta>
					<profile value="https://fhir.nhs.uk/STU3/StructureDefinition/CareConnect-ITK-Medication-1"/>
				</meta>
				<code>
					<coding>
						<system value="http://snomed.info/sct"/>
						<code value="408050008"/>
						<display value="Ramipril 2.5mg tablets"/>
					</coding>
				</code>
			</Medication>
		</resource>
	</entry>
	<!-- Medication example 2-->
	<entry>
		<fullUrl value="urn:uuid:3ce528f4-4b5f-4493-9d8a-4681f9480090"/>
		<resource>
			<Medication>
				<id value="3ce528f4-4b5f-4493-9d8a-4681f9480090"/>
				<meta>
					<profile value="https://fhir.nhs.uk/STU3/StructureDefinition/CareConnect-ITK-Medication-1"/>
				</meta>
				<code>
					<coding>
						<system value="http://snomed.info/sct"/>
						<code value="319781007"/>
						<display value="Aspirin 75mg gastro-resistant tablets"/>
					</coding>
				</code>
			</Medication>
		</resource>
	</entry>
	<!-- Medication example 3-->
	<entry>
		<fullUrl value="urn:uuid:00988800-c1e6-43b1-96c5-f0dc2ac4fa1d"/>
		<resource>
			<Medication>
				<id value="00988800-c1e6-43b1-96c5-f0dc2ac4fa1d"/>
				<meta>
					<profile value="https://fhir.nhs.uk/STU3/StructureDefinition/CareConnect-ITK-Medication-1"/>
				</meta>
				<code>
					<coding>
						<system value="http://snomed.info/sct"/>
						<code value="319799004"/>
						<display value="Clopidogrel 75mg tablets"/>
					</coding>
				</code>
			</Medication>
		</resource>
	</entry>
	<!-- Medication example 4-->
	<entry>
		<fullUrl value="urn:uuid:10fc330a-e94f-4a49-94ad-84edf525a727"/>
		<resource>
			<Medication>
				<id value="10fc330a-e94f-4a49-94ad-84edf525a727"/>
				<meta>
					<profile value="https://fhir.nhs.uk/STU3/StructureDefinition/CareConnect-ITK-Medication-1"/>
				</meta>
				<code>
					<coding>
						<system value="http://snomed.info/sct"/>
						<code value="320000009"/>
						<display value="Simvastatin 40mg tablets"/>
					</coding>
				</code>
			</Medication>
		</resource>
	</entry>
	<!-- Medication example 5-->
	<entry>
		<fullUrl value="urn:uuid:403dcbfb-aadb-4ce5-b566-6ec52c9f9855"/>
		<resource>
			<Medication>
				<id value="403dcbfb-aadb-4ce5-b566-6ec52c9f9855"/>
				<meta>
					<profile value="https://fhir.nhs.uk/STU3/StructureDefinition/CareConnect-ITK-Medication-1"/>
				</meta>
				<code>
					<coding>
						<system value="http://snomed.info/sct"/>
						<code value="318590006"/>
						<display value="Bisoprolol 5mg tablets"/>
					</coding>
				</code>
			</Medication>
		</resource>
	</entry>
	<entry>
		<fullUrl value="urn:uuid:95e8f8d0-dfc3-4c72-a9dc-7ba1ccd1fab4"/>
		<resource>
			<List>
				<id value="95e8f8d0-dfc3-4c72-a9dc-7ba1ccd1fab4"/>
				<meta>
					<profile value="https://fhir.nhs.uk/STU3/StructureDefinition/CareConnect-ITK-Allergy-List-1"/>
				</meta>
				<identifier>
					<system value="https://tools.ietf.org/html/rfc4122"/>
					<value value="6ee0967d-aaa7-411a-9398-518c089ce3a1"/>
				</identifier>
				<status value="current"/>
				<mode value="snapshot"/>
				<code>
					<coding>
						<system value="http://snomed.info/sct"/>
						<code value="886921000000105"/>
						<display value="Allergies and adverse reactions"/>
					</coding>
				</code>
				<subject>
					<reference value="urn:uuid:31686b67-9f20-4644-9a54-193d2f91de57"/>
				</subject>
				<entry>
					<flag>
						<coding>
							<system value="https://fhir.nhs.uk/STU3/CodeSystem/ITK-PatientAllergyChangeType-1"/>
							<code value="1"/>
							<display value="Unchanged"/>
						</coding>
					</flag>
					<item>
						<reference value="urn:uuid:9a1c380c-e8b0-4814-aefc-ee69d39b1079"/>
					</item>
				</entry>
			</List>
		</resource>
	</entry>
	<entry>
		<fullUrl value="urn:uuid:9a1c380c-e8b0-4814-aefc-ee69d39b1079"/>
		<resource>
			<AllergyIntolerance>
				<id value="9a1c380c-e8b0-4814-aefc-ee69d39b1079"/>
				<meta>
					<profile value="https://fhir.nhs.uk/STU3/StructureDefinition/CareConnect-ITK-AllergyIntolerance-1"/>
				</meta>
				<identifier>
					<system value="https://tools.ietf.org/html/rfc4122"/>
					<value value="06d65f0f-117a-43c6-84ea-f28c3bd664a2"/>
				</identifier>
				<clinicalStatus value="active"/>
				<verificationStatus value="confirmed"/>
				<code>
					<coding>
						<system value="http://snomed.info/sct"/>
						<code value="373270004"/>
						<display value="Penicillin -class of antibiotic-"/>
					</coding>
				</code>
				<patient>
					<reference value="urn:uuid:31686b67-9f20-4644-9a54-193d2f91de57"/>
				</patient>
				<onsetDateTime value="2012-01-12T12:00:00+00:00"/>
			</AllergyIntolerance>
		</resource>
	</entry>
	<!--Condition list-->
	<entry>
		<fullUrl value="urn:uuid:caf5f17d-e73d-4aaa-a406-dab1717da0c4"/>
		<resource>
			<List>
				<id value="caf5f17d-e73d-4aaa-a406-dab1717da0c4"/>
				<meta>
					<profile value="https://fhir.nhs.uk/STU3/StructureDefinition/CareConnect-ITK-Condition-List-1"/>
				</meta>
				<identifier>
					<system value="https://tools.ietf.org/html/rfc4122"/>
					<value value="91b64907-decb-4dfe-af45-cfbad8028f85"/>
				</identifier>
				<status value="current"/>
				<mode value="snapshot"/>
				<code>
					<coding>
						<system value="http://snomed.info/sct"/>
						<code value="887161000000102"/>
						<display value="Diagnoses"/>
					</coding>
				</code>
				<subject>
					<reference value="urn:uuid:31686b67-9f20-4644-9a54-193d2f91de57"/>
				</subject>
				<entry>
					<flag>
						<coding>
							<system value="https://fhir.nhs.uk/STU3/CodeSystem/ITK-ConditionFlag-1"/>
							<code value="1"/>
							<display value="Primary"/>
						</coding>
					</flag>
					<item>
						<reference value="urn:uuid:8197e5be-1483-48e6-bf30-842f5184d4cf"/>
					</item>
				</entry>
				<entry>
					<flag>
						<coding>
							<system value="https://fhir.nhs.uk/STU3/CodeSystem/ITK-ConditionFlag-1"/>
							<code value="2"/>
							<display value="Secondary"/>
						</coding>
					</flag>
					<item>
						<reference value="urn:uuid:6b639186-a9cd-43b0-9880-9ddb7902b934"/>
					</item>
				</entry>
				<entry>
					<flag>
						<coding>
							<system value="https://fhir.nhs.uk/STU3/CodeSystem/ITK-ConditionFlag-1"/>
							<code value="2"/>
							<display value="Secondary"/>
						</coding>
					</flag>
					<item>
						<reference value="urn:uuid:75100753-5bb3-4b75-9969-5a19158f84a6"/>
					</item>
				</entry>
			</List>
		</resource>
	</entry>
	<!--Condition example 1-->
	<entry>
		<fullUrl value="urn:uuid:8197e5be-1483-48e6-bf30-842f5184d4cf"/>
		<resource>
			<Condition>
				<id value="8197e5be-1483-48e6-bf30-842f5184d4cf"/>
				<meta>
					<profile value="https://fhir.nhs.uk/STU3/StructureDefinition/CareConnect-ITK-Condition-1"/>
				</meta>
				<identifier>
					<system value="https://tools.ietf.org/html/rfc4122"/>
					<value value="967d26cb-10cd-4291-9d5c-30ac79e42719"/>
				</identifier>
				<clinicalStatus value="active"/>
				<category>
					<coding>
						<system value="https://fhir.hl7.org.uk/STU3/CodeSystem/CareConnect-ConditionCategory-1"/>
						<code value="encounter-diagnosis"/>
						<display value="Encounter Diagnosis"/>
					</coding>
				</category>
				<code>
					<coding>
						<system value="http://snomed.info/sct"/>
						<code value="53741008"/>
						<display value="Coronary arteriosclerosis"/>
					</coding>
				</code>
				<subject>
					<reference value="urn:uuid:31686b67-9f20-4644-9a54-193d2f91de57"/>
				</subject>
				<context>
					<reference value="urn:uuid:4f36b35a-ad18-4ea9-a3fb-c893f709e88a"/>
				</context>
			</Condition>
		</resource>
	</entry>
	<!--Condition example 2-->
	<entry>
		<fullUrl value="urn:uuid:6b639186-a9cd-43b0-9880-9ddb7902b934"/>
		<resource>
			<Condition>
				<id value="6b639186-a9cd-43b0-9880-9ddb7902b934"/>
				<meta>
					<profile value="https://fhir.nhs.uk/STU3/StructureDefinition/CareConnect-ITK-Condition-1"/>
				</meta>
				<identifier>
					<system value="https://tools.ietf.org/html/rfc4122"/>
					<value value="968f8e5c-7e5f-4d15-bc15-8e7ffa59917b"/>
				</identifier>
				<clinicalStatus value="active"/>
				<category>
					<coding>
						<system value="https://fhir.hl7.org.uk/STU3/CodeSystem/CareConnect-ConditionCategory-1"/>
						<code value="encounter-diagnosis"/>
						<display value="Encounter Diagnosis"/>
					</coding>
				</category>
				<code>
					<coding>
						<system value="http://snomed.info/sct"/>
						<code value="425419005"/>
						<display value="ECG: inferior ischaemia"/>
					</coding>
				</code>
				<subject>
					<reference value="urn:uuid:31686b67-9f20-4644-9a54-193d2f91de57"/>
				</subject>
				<context>
					<reference value="urn:uuid:4f36b35a-ad18-4ea9-a3fb-c893f709e88a"/>
				</context>
			</Condition>
		</resource>
	</entry>
	<!--Condition example 3-->
	<entry>
		<fullUrl value="urn:uuid:75100753-5bb3-4b75-9969-5a19158f84a6"/>
		<resource>
			<Condition>
				<id value="75100753-5bb3-4b75-9969-5a19158f84a6"/>
				<meta>
					<profile value="https://fhir.nhs.uk/STU3/StructureDefinition/CareConnect-ITK-Condition-1"/>
				</meta>
				<identifier>
					<system value="https://tools.ietf.org/html/rfc4122"/>
					<value value="f5391b25-7ac6-440e-be2f-71e2eaaf4571"/>
				</identifier>
				<clinicalStatus value="active"/>
				<category>
					<coding>
						<system value="https://fhir.hl7.org.uk/STU3/CodeSystem/CareConnect-ConditionCategory-1"/>
						<code value="encounter-diagnosis"/>
						<display value="Encounter Diagnosis"/>
					</coding>
				</category>
				<code>
					<coding>
						<system value="http://snomed.info/sct"/>
						<code value="29857009"/>
						<display value="Chest pain"/>
					</coding>
				</code>
				<subject>
					<reference value="urn:uuid:31686b67-9f20-4644-9a54-193d2f91de57"/>
				</subject>
			</Condition>
		</resource>
	</entry>
	<!-- Procedure List-->
	<entry>
		<fullUrl value="urn:uuid:1e04ce96-6e52-4f82-bc26-93c89c5836a1"/>
		<resource>
			<List>
				<id value="1e04ce96-6e52-4f82-bc26-93c89c5836a1"/>
				<meta>
					<profile value="https://fhir.nhs.uk/STU3/StructureDefinition/CareConnect-ITK-Procedure-List-1"/>
				</meta>
				<identifier>
					<system value="https://tools.ietf.org/html/rfc4122"/>
					<value value="cdd92a18-ffb2-4e3f-aacf-de0e01bb3120"/>
				</identifier>
				<status value="current"/>
				<mode value="snapshot"/>
				<code>
					<coding>
						<system value="http://snomed.info/sct"/>
						<code value="887171000000109"/>
						<display value="Procedures"/>
					</coding>
				</code>
				<subject>
					<reference value="urn:uuid:31686b67-9f20-4644-9a54-193d2f91de57"/>
				</subject>
				<entry>
					<item>
						<reference value="urn:uuid:33422ce6-a0e4-4f01-be53-c4cfc59d13bb"/>
					</item>
				</entry>
				<entry>
					<item>
						<reference value="urn:uuid:6ea2da97-73e2-4507-b7a5-f7c0325021a9"/>
					</item>
				</entry>
				<entry>
					<item>
						<reference value="urn:uuid:b654bbd5-b6be-4314-974c-65bb48f9e47b"/>
					</item>
				</entry>
			</List>
		</resource>
	</entry>
	<!--Procedure Example 1-->
	<entry>
		<fullUrl value="urn:uuid:33422ce6-a0e4-4f01-be53-c4cfc59d13bb"/>
		<resource>
			<Procedure>
				<id value="33422ce6-a0e4-4f01-be53-c4cfc59d13bb"/>
				<meta>
					<profile value="https://fhir.nhs.uk/STU3/StructureDefinition/CareConnect-ITK-Procedure-1"/>
				</meta>
				<identifier>
					<system value="https://tools.ietf.org/html/rfc4122"/>
					<value value="5d56c9eb-fb83-4a1d-948a-af8e3809e594"/>
				</identifier>
				<status value="completed"/>
				<code>
					<coding>
						<system value="http://snomed.info/sct"/>
						<code value="46825001"/>
						<display value="Electrocardiographic monitoring"/>
					</coding>
				</code>
				<subject>
					<reference value="urn:uuid:31686b67-9f20-4644-9a54-193d2f91de57"/>
				</subject>
				<context>
					<reference value="urn:uuid:4f36b35a-ad18-4ea9-a3fb-c893f709e88a"/>
				</context>
			</Procedure>
		</resource>
	</entry>
	<!--Procedure Example 2-->
	<entry>
		<fullUrl value="urn:uuid:6ea2da97-73e2-4507-b7a5-f7c0325021a9"/>
		<resource>
			<Procedure>
				<id value="6ea2da97-73e2-4507-b7a5-f7c0325021a9"/>
				<meta>
					<profile value="https://fhir.nhs.uk/STU3/StructureDefinition/CareConnect-ITK-Procedure-1"/>
				</meta>
				<identifier>
					<system value="https://tools.ietf.org/html/rfc4122"/>
					<value value="1f2f7b4e-8a61-4211-95b6-034a9a85df58"/>
				</identifier>
				<status value="completed"/>
				<code>
					<coding>
						<system value="http://snomed.info/sct"/>
						<code value="415070008"/>
						<display value="Percutaneous coronary intervention"/>
					</coding>
				</code>
				<subject>
					<reference value="urn:uuid:31686b67-9f20-4644-9a54-193d2f91de57"/>
				</subject>
				<context>
					<reference value="urn:uuid:4f36b35a-ad18-4ea9-a3fb-c893f709e88a"/>
				</context>
				<bodySite>
					<coding>
						<system value="http://snomed.info/sct"/>
						<code value="13647002"/>
						<display value="Right coronary artery structure"/>
					</coding>
				</bodySite>
			</Procedure>
		</resource>
	</entry>
	<!--Procedure Example 3-->
	<entry>
		<fullUrl value="urn:uuid:b654bbd5-b6be-4314-974c-65bb48f9e47b"/>
		<resource>
			<Procedure>
				<id value="b654bbd5-b6be-4314-974c-65bb48f9e47b"/>
				<meta>
					<profile value="https://fhir.nhs.uk/STU3/StructureDefinition/CareConnect-ITK-Procedure-1"/>
				</meta>
				<identifier>
					<system value="https://tools.ietf.org/html/rfc4122"/>
					<value value="bbf5f5fd-ddba-41f1-9e75-01e7ecd0dd94"/>
				</identifier>
				<status value="completed"/>
				<code>
					<coding>
						<system value="http://snomed.info/sct"/>
						<code value="410188000"/>
						<display value="Taking patient vital signs assessment"/>
					</coding>
				</code>
				<subject>
					<reference value="urn:uuid:31686b67-9f20-4644-9a54-193d2f91de57"/>
				</subject>
				<context>
					<reference value="urn:uuid:4f36b35a-ad18-4ea9-a3fb-c893f709e88a"/>
				</context>
			</Procedure>
		</resource>
	</entry>
	<!--Patient example-->
	<entry>
		<fullUrl value="urn:uuid:31686b67-9f20-4644-9a54-193d2f91de57"/>
		<resource>
			<Patient>
				<id value="31686b67-9f20-4644-9a54-193d2f91de57"/>
				<meta>
					<profile value="https://fhir.hl7.org.uk/STU3/StructureDefinition/CareConnect-Patient-1"/>
				</meta>
				<identifier>
					<extension url="https://fhir.hl7.org.uk/STU3/StructureDefinition/Extension-CareConnect-NHSNumberVerificationStatus-1">
						<valueCodeableConcept>
							<coding>
								<system value="https://fhir.hl7.org.uk/STU3/CodeSystem/CareConnect-NHSNumberVerificationStatus-1"/>
								<code value="01"/>
								<display value="Number present and verified"/>
							</coding>
						</valueCodeableConcept>
					</extension>
					<system value="https://fhir.nhs.uk/Id/nhs-number"/>
					<value value="1352465790"/>
				</identifier>
				<name>
					<use value="official"/>
					<family value="Smith"/>
					<given value="Richard"/>
					<prefix value="Mr"/>
				</name>
				<gender value="male"/>
				<birthDate value="1957-01-01"/>
				<address>
					<line value="21, Grove Street, Overtown"/>
					<city value="Leeds"/>
					<postalCode value="LS21 1PF"/>
				</address>
			</Patient>
		</resource>
	</entry>
	<!--Practitioner-Example-1-->
	<entry>
		<fullUrl value="urn:uuid:6239b7a7-380d-46ff-a1c5-7abc4e68f8bc"/>
		<resource>
			<Practitioner>
				<id value="6239b7a7-380d-46ff-a1c5-7abc4e68f8bc"/>
				<meta>
					<profile value="https://fhir.hl7.org.uk/STU3/StructureDefinition/CareConnect-Practitioner-1"/>
				</meta>
				<identifier>
					<system value="https://fhir.nhs.uk/Id/local-practitioner-identifier"/>
					<value value="6122477"/>
				</identifier>
				<name>
					<family value="Rastall"/>
					<given value="Paul"/>
					<prefix value="Dr"/>
				</name>
				<telecom>
					<system value="phone"/>
					<value value="0113 6323200"/>
					<use value="work"/>
				</telecom>
			</Practitioner>
		</resource>
	</entry>
	<!--Practitioner-Example-2-->
	<entry>
		<fullUrl value="urn:uuid:8ece9986-9af0-4882-b0cf-23a96ea7b509"/>
		<resource>
			<Practitioner>
				<id value="8ece9986-9af0-4882-b0cf-23a96ea7b509"/>
				<meta>
					<profile value="https://fhir.hl7.org.uk/STU3/StructureDefinition/CareConnect-Practitioner-1"/>
				</meta>
				<identifier>
					<system value="https://fhir.nhs.uk/Id/sds-user-id"/>
					<value value="033345750517"/>
				</identifier>
				<name>
					<family value="Jones"/>
					<given value="Angela"/>
					<prefix value="Mrs"/>
				</name>
			</Practitioner>
		</resource>
	</entry>
	<!--Practitioner-Example-3-->
	<entry>
		<fullUrl value="urn:uuid:5e414a77-d394-4248-a631-00e45ddb64a0"/>
		<resource>
			<Practitioner>
				<id value="5e414a77-d394-4248-a631-00e45ddb64a0"/>
				<meta>
					<profile value="https://fhir.hl7.org.uk/STU3/StructureDefinition/CareConnect-Practitioner-1"/>
				</meta>
				<identifier>
					<system value="https://fhir.nhs.uk/Id/local-practitioner-identifier"/>
					<value value="6122472"/>
				</identifier>
				<name>
					<family value="Lorenzo"/>
					<given value="John"/>
					<prefix value="Dr"/>
				</name>
			</Practitioner>
		</resource>
	</entry>
	<entry>
		<fullUrl value="urn:uuid:7016a1b0-9fa4-4f4f-9eef-0922f3b2aa48"/>
		<resource>
			<PractitionerRole>
				<id value="7016a1b0-9fa4-4f4f-9eef-0922f3b2aa48"/>
				<meta>
					<profile value="https://fhir.hl7.org.uk/STU3/StructureDefinition/CareConnect-PractitionerRole-1"/>
				</meta>
				<practitioner>
					<reference value="urn:uuid:6239b7a7-380d-46ff-a1c5-7abc4e68f8bc"/>
				</practitioner>
				<organization>
					<reference value="urn:uuid:12bba528-a08a-448b-946b-7e8008044025"/>
				</organization>
				<code>
					<coding>
						<system value="https://fhir.hl7.org.uk/STU3/CodeSystem/CareConnect-SDSJobRoleName-1"/>
						<code value="R0050"/>
						<display value="Consultant"/>
					</coding>
				</code>
				<specialty>
					<coding>
						<system value="http://snomed.info/sct"/>
						<code value="394579002"/>
						<display value="Cardiology"/>
					</coding>
				</specialty>
			</PractitionerRole>
		</resource>
	</entry>
	<entry>
		<fullUrl value="urn:uuid:a7922b56-d0da-4437-9c45-901b399e8cc5"/>
		<resource>
			<PractitionerRole>
				<id value="a7922b56-d0da-4437-9c45-901b399e8cc5"/>
				<meta>
					<profile value="https://fhir.hl7.org.uk/STU3/StructureDefinition/CareConnect-PractitionerRole-1"/>
				</meta>
				<practitioner>
					<reference value="urn:uuid:8ece9986-9af0-4882-b0cf-23a96ea7b509"/>
				</practitioner>
				<organization>
					<reference value="urn:uuid:acd640c9-5ff9-41ae-9ef3-07a1d5667140"/>
				</organization>
				<code>
					<coding>
						<system value="https://fhir.hl7.org.uk/STU3/CodeSystem/CareConnect-SDSJobRoleName-1"/>
						<code value="R0700"/>
						<display value="Community Nurse"/>
					</coding>
				</code>
			</PractitionerRole>
		</resource>
	</entry>
	<entry>
		<fullUrl value="urn:uuid:98828e88-b869-439d-8a64-10fd2cd7a4cd"/>
		<resource>
			<PractitionerRole>
				<id value="98828e88-b869-439d-8a64-10fd2cd7a4cd"/>
				<meta>
					<profile value="https://fhir.hl7.org.uk/STU3/StructureDefinition/CareConnect-PractitionerRole-1"/>
				</meta>
				<practitioner>
					<reference value="urn:uuid:5e414a77-d394-4248-a631-00e45ddb64a0"/>
				</practitioner>
				<organization>
					<reference value="urn:uuid:f9f24f89-646b-4a19-a6b1-cabfa3b612e1"/>
				</organization>
				<code>
					<coding>
						<system value="https://fhir.hl7.org.uk/STU3/CodeSystem/CareConnect-SDSJobRoleName-1"/>
						<code value="R0260"/>
						<display value="General Medical Practitioner"/>
					</coding>
				</code>
			</PractitionerRole>
		</resource>
	</entry>
	<!--Organization-Example-1-->
	<entry>
		<fullUrl value="urn:uuid:f9f24f89-646b-4a19-a6b1-cabfa3b612e1"/>
		<resource>
			<Organization>
				<id value="f9f24f89-646b-4a19-a6b1-cabfa3b612e1"/>
				<meta>
					<profile value="https://fhir.hl7.org.uk/STU3/StructureDefinition/CareConnect-Organization-1"/>
				</meta>
				<identifier>
					<system value="https://fhir.nhs.uk/Id/ods-organization-code"/>
					<value value="GP123456"/>
				</identifier>
				<name value="MGP Medical Centre"/>
				<address>
					<line value="1 MGP House, Overtown"/>
					<city value="Leeds"/>
					<postalCode value="LS21 7PA"/>
				</address>
			</Organization>
		</resource>
	</entry>
	<!--Organization-Example-2-->
	<entry>
		<fullUrl value="urn:uuid:12bba528-a08a-448b-946b-7e8008044025"/>
		<resource>
			<Organization>
				<id value="12bba528-a08a-448b-946b-7e8008044025"/>
				<meta>
					<profile value="https://fhir.hl7.org.uk/STU3/StructureDefinition/CareConnect-Organization-1"/>
				</meta>
				<identifier>
					<system value="https://fhir.nhs.uk/Id/ods-organization-code"/>
					<value value="RR8"/>
				</identifier>
				<name value="Leeds Teaching Hospitals NHS Trust"/>
				<address>
					<line value="St James's University Hospital, Beckett Street"/>
					<city value="Leeds"/>
					<postalCode value="LS9 7TF"/>
				</address>
			</Organization>
		</resource>
	</entry>
	<!--Organization-Example-3-->
	<entry>
		<fullUrl value="urn:uuid:acd640c9-5ff9-41ae-9ef3-07a1d5667140"/>
		<resource>
			<Organization>
				<id value="acd640c9-5ff9-41ae-9ef3-07a1d5667140"/>
				<meta>
					<profile value="https://fhir.hl7.org.uk/STU3/StructureDefinition/CareConnect-Organization-1"/>
				</meta>
				<identifier>
					<system value="https://fhir.nhs.uk/Id/ods-organization-code"/>
					<value value="RY6"/>
				</identifier>
				<name value="Leeds Community Healthcare NHS Trust"/>
			</Organization>
		</resource>
	</entry>
	<entry>
		<fullUrl value="urn:uuid:01bb1ccc-577b-4a4a-9fb0-9c8fe9f21fa3"/>
		<resource>
			<Location>
				<id value="01bb1ccc-577b-4a4a-9fb0-9c8fe9f21fa3"/>
				<meta>
					<profile value="https://fhir.hl7.org.uk/STU3/StructureDefinition/CareConnect-Location-1"/>
				</meta>
				<identifier>
					<system value="https://fhir.nhs.uk/Id/local-location-identifier"/>
					<value value="RR8CRAM"/>
				</identifier>
				<name value="Cramer Ward"/>
				<managingOrganization>
					<reference value="urn:uuid:12bba528-a08a-448b-946b-7e8008044025"/>
				</managingOrganization>
			</Location>
		</resource>
	</entry>
</Bundle>
